ID,timeStamp,packetNumber,sampleNumber,accX,accY,accZ,gyrX,gyrY,gyrZ
1,1496755507,469,1,-4,-82,-58,0,0,0
1,1496755507,469,2,-3,-81,-58,0,0,0
1,1496755507,469,3,-3,-82,-58,0,0,0
1,1496755507,469,4,-2,-81,-57,0,0,0
1,1496755507,469,5,-2,-82,-56,0,0,0
1,1496755507,469,6,-2,-81,-57,-2,0,0
1,1496755507,469,7,-3,-82,-58,-2,0,0
1,1496755507,469,8,-4,-82,-58,0,0,0
1,1496755507,469,9,0,-82,-59,-2,0,0
1,1496755507,469,10,-8,-87,-57,-2,1,0
1,1496755507,469,11,-1,-82,-56,0,0,0
1,1496755507,469,12,-4,-81,-58,-2,0,0
1,1496755507,469,13,-1,-83,-58,0,1,0
1,1496755507,469,14,0,-77,-54,0,0,0
1,1496755507,469,15,-3,-81,-57,0,0,0
1,1496755507,469,16,-5,-83,-59,0,0,0
1,1496755507,469,17,-1,-79,-56,0,0,0
1,1496755507,469,18,-2,-85,-58,-2,0,0
1,1496755507,469,19,-3,-82,-58,0,0,0
1,1496755507,469,20,-2,-78,-55,0,0,0
1,1496755508,470,1,-4,-81,-56,-2,1,0
1,1496755508,470,2,-3,-84,-58,-2,1,0
1,1496755508,470,3,-3,-82,-56,0,1,0
1,1496755508,470,4,-6,-78,-57,-2,0,0
1,1496755508,470,5,-2,-81,-57,-2,0,0
1,1496755508,470,6,-3,-82,-58,0,0,0
1,1496755508,470,7,-4,-82,-59,0,0,0
1,1496755508,470,8,-2,-82,-56,0,0,0
1,1496755508,470,9,-3,-80,-56,0,0,0
1,1496755508,470,10,-4,-84,-59,-2,1,0
1,1496755508,470,11,-1,-85,-59,0,0,0
1,1496755508,470,12,-6,-75,-58,0,0,-2
1,1496755508,470,13,0,-79,-55,-2,0,0
1,1496755508,470,14,-4,-87,-61,-2,1,0
1,1496755508,470,15,-2,-72,-52,-2,0,0
1,1496755508,470,16,-2,-82,-56,-2,0,0
1,1496755508,470,17,0,-84,-56,-2,1,0
1,1496755508,470,18,-5,-67,-49,-2,0,0
1,1496755508,470,19,-2,-90,-58,0,0,0
1,1496755508,470,20,-7,-82,-60,-2,1,-2
1,1496755509,471,1,-2,-77,-53,0,0,0
1,1496755509,471,2,-7,-88,-63,0,0,0
1,1496755509,471,3,-1,-78,-55,0,1,0
1,1496755509,471,4,-5,-80,-56,-2,0,0
1,1496755509,471,5,-1,-78,-57,0,1,0
1,1496755509,471,6,1,-80,-58,0,1,0
1,1496755509,471,7,0,-72,-56,0,0,0
1,1496755509,471,8,-6,-91,-53,-2,1,0
1,1496755509,471,9,-4,-79,-58,0,3,0
1,1496755509,471,10,-2,-93,-61,-2,1,0
1,1496755509,471,11,3,-73,-55,0,0,0
1,1496755509,471,12,1,-80,-53,0,1,0
1,1496755509,471,13,-10,-88,-60,-2,1,0
1,1496755509,471,14,-4,-92,-60,-2,1,-2
1,1496755509,471,15,-2,-85,-57,0,1,0
1,1496755509,471,16,-4,-85,-58,-2,1,0
1,1496755509,471,17,-1,-75,-55,0,0,0
1,1496755509,471,18,-2,-84,-57,0,0,0
1,1496755509,471,19,-6,-82,-58,-2,1,0
1,1496755509,471,20,-4,-83,-59,0,0,0
1,1496755510,471,1,-4,-76,-54,0,0,0
1,1496755510,471,2,-2,-74,-59,0,0,0
1,1496755510,471,3,-3,-78,-55,0,0,0
1,1496755510,471,4,-7,-85,-58,0,0,0
1,1496755510,471,5,-1,-78,-57,0,1,0
1,1496755510,471,6,1,-80,-58,0,1,0
1,1496755510,471,7,0,-72,-56,0,0,0
1,1496755510,471,8,-6,-91,-53,-2,1,0
1,1496755510,471,9,-4,-79,-58,0,3,0
1,1496755510,471,10,-2,-93,-61,-2,1,0
1,1496755510,471,11,3,-73,-55,0,0,0
1,1496755510,471,12,1,-80,-53,0,1,0
1,1496755510,471,13,-10,-88,-60,-2,1,0
1,1496755510,471,14,-4,-92,-60,-2,1,-2
1,1496755510,471,15,-2,-85,-57,0,1,0
1,1496755510,471,16,-4,-85,-58,-2,1,0
1,1496755510,471,17,-1,-75,-55,0,0,0
1,1496755510,471,18,-2,-84,-57,0,0,0
1,1496755510,471,19,-6,-82,-58,-2,1,0
1,1496755510,471,20,-4,-83,-59,0,0,0
1,1496755511,472,1,-4,-76,-54,0,0,0
1,1496755511,472,2,-2,-74,-59,0,0,0
1,1496755511,472,3,-3,-78,-55,0,0,0
1,1496755511,472,4,-7,-85,-58,0,0,0
1,1496755511,472,5,-8,-88,-64,-2,0,0
1,1496755511,472,6,-8,-81,-62,0,1,0
1,1496755511,472,7,-1,-85,-57,-2,0,0
1,1496755511,472,8,-2,-82,-59,0,1,0
1,1496755511,472,9,-2,-80,-57,0,3,0
1,1496755511,472,10,-4,-83,-59,-2,0,0
1,1496755511,472,11,-2,-83,-60,0,1,0
1,1496755511,472,12,-2,-81,-59,0,0,0
1,1496755511,472,13,-3,-83,-59,0,0,0
1,1496755511,472,14,-1,-82,-56,-2,1,0
1,1496755511,472,15,-3,-84,-59,-2,0,0
1,1496755511,472,16,-3,-82,-58,-2,1,0
1,1496755511,472,17,-1,-76,-55,-2,1,0
1,1496755511,472,18,-4,-82,-58,0,0,0
1,1496755511,472,19,-3,-81,-59,0,1,0
1,1496755511,472,20,-3,-80,-62,-2,0,0
1,1496755512,473,1,-4,-83,-57,0,0,0
1,1496755512,473,2,-2,-80,-58,-2,0,0
1,1496755512,473,3,-3,-84,-59,0,1,0
1,1496755512,473,4,-6,-84,-58,0,1,0
1,1496755512,473,5,-2,-79,-58,-2,0,0
1,1496755512,473,6,-2,-82,-56,0,0,0
1,1496755512,473,7,-2,-82,-57,0,0,0
1,1496755512,473,8,-2,-83,-57,-2,1,0
1,1496755512,473,9,-3,-83,-56,0,1,0
1,1496755512,473,10,-2,-81,-59,-2,0,0
1,1496755512,473,11,-6,-84,-57,0,1,0
1,1496755512,473,12,-3,-82,-57,0,0,0
1,1496755512,473,13,-3,-83,-57,-2,1,0
1,1496755512,473,14,-2,-82,-56,0,0,0
1,1496755512,473,15,-3,-80,-58,0,0,0
1,1496755512,473,16,-4,-84,-57,0,1,0
1,1496755512,473,17,-5,-84,-57,0,1,0
1,1496755512,473,18,-4,-84,-59,-2,0,0
1,1496755512,473,19,-1,-81,-55,0,1,0
1,1496755512,473,20,0,-79,-56,-2,0,0
1,1496755513,474,1,-6,-85,-59,-2,1,0
1,1496755513,474,2,-4,-83,-57,0,0,0
1,1496755513,474,3,-1,-78,-55,0,0,0
1,1496755513,474,4,-3,-81,-57,0,1,0
1,1496755513,474,5,-5,-84,-58,0,0,0
1,1496755513,474,6,-4,-85,-58,-2,0,0
1,1496755513,474,7,-5,-81,-54,0,1,0
1,1496755513,474,8,-2,-79,-56,0,0,0
1,1496755513,474,9,-6,-83,-58,-2,1,0
1,1496755513,474,10,-3,-83,-56,0,0,0
1,1496755513,474,11,-2,-85,-58,0,0,0
1,1496755513,474,12,-3,-82,-58,0,0,0
1,1496755513,474,13,-4,-87,-58,0,1,0
1,1496755513,474,14,-4,-82,-60,-2,0,0
1,1496755513,474,15,-5,-85,-58,0,1,0
1,1496755513,474,16,-5,-82,-56,0,0,0
1,1496755513,474,17,-1,-79,-59,-2,0,0
1,1496755513,474,18,-4,-82,-59,0,1,0
1,1496755513,474,19,-7,-88,-59,-2,0,0
1,1496755513,474,20,0,-81,-60,-2,0,0
1,1496755514,475,1,-3,-78,-59,-2,0,0
1,1496755514,475,2,-3,-82,-58,0,0,0
1,1496755514,475,3,-2,-82,-59,-2,0,0
1,1496755514,475,4,-4,-81,-59,-2,0,0
1,1496755514,475,5,-1,-84,-57,0,1,0
1,1496755514,475,6,0,-78,-57,-2,0,0
1,1496755514,475,7,-4,-80,-59,-2,0,0
1,1496755514,475,8,-2,-81,-57,0,0,0
1,1496755514,475,9,-1,-81,-58,-2,0,0
1,1496755514,475,10,-5,-84,-58,-2,0,0
1,1496755514,475,11,-6,-84,-57,0,1,0
1,1496755514,475,12,-3,-84,-57,0,0,0
1,1496755514,475,13,-1,-80,-57,-2,0,0
1,1496755514,475,14,-1,-81,-56,0,1,0
1,1496755514,475,15,-5,-86,-57,0,1,0
1,1496755514,475,16,-3,-81,-57,-2,0,0
1,1496755514,475,17,-5,-87,-58,-2,0,0
1,1496755514,475,18,0,-80,-57,0,0,0
1,1496755514,475,19,-2,-82,-57,-2,0,0
1,1496755514,475,20,-1,-83,-56,0,0,0
1,1496755515,476,1,0,-81,-58,-2,0,0
1,1496755515,476,2,-3,-81,-59,-2,0,0
1,1496755515,476,3,-2,-78,-60,-2,0,0
1,1496755515,476,4,-2,-83,-59,0,0,0
1,1496755515,476,5,-3,-81,-57,0,0,0
1,1496755515,476,6,-5,-85,-58,0,0,0
1,1496755515,476,7,-4,-82,-58,0,0,0
1,1496755515,476,8,-2,-78,-55,0,1,0
1,1496755515,476,9,-5,-87,-58,-2,0,0
1,1496755515,476,10,-5,-84,-58,0,0,0
1,1496755515,476,11,-1,-79,-58,0,0,0
1,1496755515,476,12,-4,-84,-58,-2,0,0
1,1496755515,476,13,-1,-79,-56,-2,1,0
1,1496755515,476,14,-4,-81,-60,0,0,0
1,1496755515,476,15,-4,-84,-60,-2,0,0
1,1496755515,476,16,0,-75,-56,-2,0,0
1,1496755515,476,17,-2,-84,-57,0,1,0
1,1496755515,476,18,-2,-80,-60,-2,0,0
1,1496755515,476,19,-1,-78,-57,-2,1,0
1,1496755515,476,20,-5,-85,-57,0,1,0
1,1496755516,477,1,-3,-87,-58,0,0,0
1,1496755516,477,2,-4,-84,-56,-2,0,0
1,1496755516,477,3,-2,-82,-56,0,0,0
1,1496755516,477,4,-4,-85,-57,0,0,0
1,1496755516,477,5,0,-78,-57,-2,0,0
1,1496755516,477,6,-3,-82,-58,0,0,0
1,1496755516,477,7,-5,-85,-59,0,0,0
1,1496755516,477,8,-1,-77,-57,0,1,0
1,1496755516,477,9,0,-81,-57,-2,1,0
1,1496755516,477,10,-1,-81,-56,0,0,0
1,1496755516,477,11,-3,-85,-58,0,0,0
1,1496755516,477,12,-1,-81,-58,0,0,0
1,1496755516,477,13,-6,-81,-58,0,0,0
1,1496755516,477,14,-5,-83,-59,0,1,0
1,1496755516,477,15,-5,-86,-59,0,0,0
1,1496755516,477,16,-1,-81,-56,-2,0,0
1,1496755516,477,17,-2,-85,-58,0,0,0
1,1496755516,477,18,-1,-80,-58,0,0,0
1,1496755516,477,19,-3,-83,-58,-2,0,0
1,1496755516,477,20,-5,-85,-58,-2,0,0
1,1496755517,478,1,-5,-86,-60,0,0,0
1,1496755517,478,2,-1,-81,-58,-2,1,0
1,1496755517,478,3,-1,-80,-60,-2,0,0
1,1496755517,478,4,-5,-83,-57,0,0,0
1,1496755517,478,5,-2,-84,-58,0,0,0
1,1496755517,478,6,-1,-77,-58,-2,0,0
1,1496755517,478,7,-2,-81,-56,0,0,0
1,1496755517,478,8,-5,-81,-59,-2,0,0
1,1496755517,478,9,1,-81,-59,-2,0,0
1,1496755517,478,10,-6,-80,-57,-2,1,0
1,1496755517,478,11,-2,-81,-58,-2,0,0
1,1496755517,478,12,-3,-82,-60,0,0,0
1,1496755517,478,13,-1,-79,-58,0,1,0
1,1496755517,478,14,-3,-83,-58,-2,1,0
1,1496755517,478,15,-5,-83,-58,0,0,0
1,1496755517,478,16,-5,-85,-58,0,1,0
1,1496755517,478,17,-2,-79,-55,-2,0,0
1,1496755517,478,18,-2,-81,-57,0,0,0
1,1496755517,478,19,-4,-83,-59,0,0,0
1,1496755517,478,20,0,-78,-60,-2,0,0
1,1496755518,479,1,0,-76,-58,-2,0,0
1,1496755518,479,2,-5,-86,-59,0,1,0
1,1496755518,479,3,-3,-83,-57,0,0,0
1,1496755518,479,4,-2,-79,-58,0,0,0
1,1496755518,479,5,-4,-84,-58,0,0,0
1,1496755518,479,6,-2,-80,-58,0,1,0
1,1496755518,479,7,-1,-84,-57,0,0,0
1,1496755518,479,8,-3,-80,-58,0,0,0
1,1496755518,479,9,-3,-81,-59,0,0,0
1,1496755518,479,10,0,-76,-56,0,0,0
1,1496755518,479,11,-1,-82,-55,-2,0,0
1,1496755518,479,12,0,-80,-56,-2,0,0
1,1496755518,479,13,-3,-78,-59,0,0,0
1,1496755518,479,14,-1,-78,-61,-2,0,0
1,1496755518,479,15,-2,-82,-60,-2,0,0
1,1496755518,479,16,-1,-80,-57,0,0,0
1,1496755518,479,17,-2,-85,-56,0,0,0
1,1496755518,479,18,-2,-79,-56,0,0,0
1,1496755518,479,19,-4,-81,-55,0,1,0
1,1496755518,479,20,-3,-81,-58,-2,1,0
1,1496755518,480,1,-2,-82,-56,-2,0,0
1,1496755518,480,2,-4,-84,-59,0,0,0
1,1496755518,480,3,-4,-82,-59,0,0,0
1,1496755518,480,4,-2,-76,-58,-2,0,0
1,1496755518,480,5,-5,-83,-59,0,1,0
1,1496755518,480,6,-2,-82,-56,0,0,0
1,1496755518,480,7,-1,-79,-58,-2,0,0
1,1496755518,480,8,-2,-81,-57,0,0,0
1,1496755518,480,9,-4,-80,-56,0,0,0
1,1496755518,480,10,-1,-80,-59,-2,1,0
1,1496755518,480,11,-2,-80,-59,-2,0,0
1,1496755518,480,12,-4,-82,-57,0,0,0
1,1496755518,480,13,-6,-84,-58,0,1,0
1,1496755518,480,14,-4,-81,-59,0,0,0
1,1496755518,480,15,-4,-82,-58,0,0,0
1,1496755518,480,16,-4,-86,-56,0,1,0
1,1496755518,480,17,-3,-83,-57,-2,0,0
1,1496755518,480,18,-6,-84,-59,0,1,0
1,1496755518,480,19,-2,-83,-56,0,1,0
1,1496755518,480,20,-5,-83,-59,-2,1,0
1,1496755519,481,1,-2,-80,-59,-2,0,0
1,1496755519,481,2,-4,-82,-59,0,0,0
1,1496755519,481,3,-3,-80,-58,-2,0,0
1,1496755519,481,4,-4,-79,-58,0,0,0
1,1496755519,481,5,-1,-79,-57,0,0,0
1,1496755519,481,6,-5,-78,-58,-2,0,0
1,1496755519,481,7,-1,-80,-58,-2,0,0
1,1496755519,481,8,-5,-83,-57,0,1,0
1,1496755519,481,9,0,-84,-57,0,0,0
1,1496755519,481,10,-5,-83,-59,0,1,0
1,1496755519,481,11,-3,-82,-58,0,1,0
1,1496755519,481,12,-2,-82,-58,0,0,0
1,1496755519,481,13,-3,-83,-60,0,0,0
1,1496755519,481,14,-2,-83,-59,0,0,0
1,1496755519,481,15,0,-80,-58,0,0,0
1,1496755519,481,16,-3,-83,-58,0,0,0
1,1496755519,481,17,-1,-79,-56,0,1,0
1,1496755519,481,18,-4,-79,-59,-2,0,0
1,1496755519,481,19,-6,-85,-58,0,0,0
1,1496755519,481,20,-2,-82,-57,0,1,0
1,1496755520,482,1,-3,-81,-57,-2,0,0
1,1496755520,482,2,-3,-83,-58,0,1,0
1,1496755520,482,3,-2,-83,-58,0,1,0
1,1496755520,482,4,-3,-81,-59,-2,0,0
1,1496755520,482,5,0,-78,-57,-2,0,0
1,1496755520,482,6,-1,-81,-57,0,1,0
1,1496755520,482,7,-4,-84,-58,-2,0,0
1,1496755520,482,8,-3,-83,-59,0,0,0
1,1496755520,482,9,-5,-81,-59,0,0,0
1,1496755520,482,10,-5,-82,-58,-2,1,0
1,1496755520,482,11,-6,-83,-59,-2,1,0
1,1496755520,482,12,0,-78,-59,-2,0,0
1,1496755520,482,13,0,-80,-58,-2,0,0
1,1496755520,482,14,-3,-78,-58,0,0,0
1,1496755520,482,15,-1,-81,-57,-2,0,0
1,1496755520,482,16,-2,-81,-59,-2,0,0
1,1496755520,482,17,-3,-82,-57,0,0,0
1,1496755520,482,18,-3,-80,-58,-2,0,0
1,1496755520,482,19,-3,-82,-59,-2,1,0
1,1496755520,482,20,-1,-79,-57,-2,0,0
1,1496755520,482,1,-3,-81,-57,0,0,0
1,1496755520,482,2,-2,-79,-56,0,0,0
1,1496755520,482,3,-2,-81,-58,-2,0,0
1,1496755520,482,4,-6,-87,-59,-2,1,0
1,1496755520,482,5,-2,-78,-57,0,0,0
1,1496755520,482,6,-3,-81,-58,-2,0,0
1,1496755520,482,7,-2,-79,-59,-2,0,0
1,1496755520,482,8,-1,-78,-57,-2,0,0
1,1496755520,482,9,-3,-80,-57,0,0,0
1,1496755520,482,10,-5,-82,-58,-2,1,0
1,1496755520,482,11,-6,-83,-59,-2,1,0
1,1496755520,482,12,0,-78,-59,-2,0,0
1,1496755520,482,13,0,-80,-58,-2,0,0
1,1496755520,482,14,-3,-78,-58,0,0,0
1,1496755520,482,15,-1,-81,-57,-2,0,0
1,1496755520,482,16,-2,-81,-59,-2,0,0
1,1496755520,482,17,-3,-82,-57,0,0,0
1,1496755520,482,18,-3,-80,-58,-2,0,0
1,1496755520,482,19,-3,-82,-59,-2,1,0
1,1496755520,482,20,-1,-79,-57,-2,0,0
1,1496755520,483,1,-3,-81,-57,0,0,0
1,1496755520,483,2,-2,-79,-56,0,0,0
1,1496755520,483,3,-2,-81,-58,-2,0,0
1,1496755520,483,4,-6,-87,-59,-2,1,0
1,1496755520,483,5,-2,-78,-57,0,0,0
1,1496755520,483,6,-3,-81,-58,-2,0,0
1,1496755520,483,7,-2,-79,-59,-2,0,0
1,1496755520,483,8,-1,-78,-57,-2,0,0
1,1496755520,483,9,-3,-80,-57,0,0,0
1,1496755520,483,10,-4,-81,-55,0,1,0
1,1496755520,483,11,-1,-81,-60,0,0,0
1,1496755520,483,12,-2,-79,-58,-2,0,0
1,1496755520,483,13,0,-83,-57,0,0,0
1,1496755520,483,14,-3,-78,-57,-2,0,0
1,1496755520,483,15,0,-81,-57,-2,0,0
1,1496755520,483,16,-1,-79,-57,0,0,0
1,1496755520,483,17,-2,-79,-56,-2,1,0
1,1496755520,483,18,-5,-83,-57,0,1,0
1,1496755520,483,19,0,-80,-57,-2,0,0
1,1496755520,483,20,-1,-78,-58,-2,0,0
1,1496755521,484,1,-3,-82,-55,0,0,0
1,1496755521,484,2,-2,-81,-59,-2,0,0
1,1496755521,484,3,-1,-80,-58,-2,0,0
1,1496755521,484,4,0,-80,-56,0,0,0
1,1496755521,484,5,0,-81,-59,-2,0,0
1,1496755521,484,6,-3,-84,-58,0,0,0
1,1496755521,484,7,-2,-80,-56,-2,0,0
1,1496755521,484,8,-3,-80,-59,-2,0,0
1,1496755521,484,9,-5,-84,-56,0,0,0
1,1496755521,484,10,0,-78,-58,-2,0,0
1,1496755521,484,11,-1,-80,-58,-2,0,0
1,1496755521,484,12,-5,-82,-58,0,0,0
1,1496755521,484,13,-1,-79,-57,-2,0,0
1,1496755521,484,14,-2,-84,-58,0,1,0
1,1496755521,484,15,-1,-79,-57,-2,0,0
1,1496755521,484,16,-4,-81,-58,-2,0,0
1,1496755521,484,17,-5,-84,-57,0,0,0
1,1496755521,484,18,-3,-80,-58,-2,0,0
1,1496755521,484,19,-3,-81,-60,-2,0,0
1,1496755521,484,20,-4,-81,-57,0,0,0
1,1496755522,485,1,-1,-82,-57,-2,1,0
1,1496755522,485,2,-5,-85,-59,0,0,0
1,1496755522,485,3,-2,-77,-56,-2,0,0
1,1496755522,485,4,-4,-80,-59,-2,0,0
1,1496755522,485,5,-2,-85,-55,0,0,0
1,1496755522,485,6,-4,-78,-60,0,0,0
1,1496755522,485,7,-6,-79,-62,-2,0,0
1,1496755522,485,8,-3,-81,-59,0,0,0
1,1496755522,485,9,0,-80,-56,0,0,0
1,1496755522,485,10,-1,-83,-59,0,1,0
1,1496755522,485,11,-3,-82,-57,-2,0,0
1,1496755522,485,12,-1,-79,-56,0,0,0
1,1496755522,485,13,-5,-82,-58,0,1,0
1,1496755522,485,14,0,-78,-57,0,0,0
1,1496755522,485,15,-1,-80,-58,-2,0,0
1,1496755522,485,16,0,-81,-57,0,1,0
1,1496755522,485,17,-3,-85,-59,0,0,0
1,1496755522,485,18,-4,-83,-59,-2,1,0
1,1496755522,485,19,-4,-81,-57,0,0,0
1,1496755522,485,20,-3,-81,-59,-2,0,0
1,1496755523,486,1,-6,-84,-60,0,1,0
1,1496755523,486,2,-1,-81,-56,-2,0,0
1,1496755523,486,3,-1,-80,-58,-2,0,0
1,1496755523,486,4,-3,-84,-58,0,0,0
1,1496755523,486,5,0,-82,-56,0,1,0
1,1496755523,486,6,-1,-82,-58,-2,1,0
1,1496755523,486,7,0,-79,-56,0,0,0
1,1496755523,486,8,-2,-82,-57,0,0,0
1,1496755523,486,9,-3,-84,-59,0,1,0
1,1496755523,486,10,-1,-79,-57,0,0,0
1,1496755523,486,11,0,-75,-57,0,1,0
1,1496755523,486,12,-7,-82,-57,0,1,0
1,1496755523,486,13,-4,-82,-59,0,1,0
1,1496755523,486,14,-1,-82,-58,-2,1,0
1,1496755523,486,15,-3,-83,-55,0,1,0
1,1496755523,486,16,-4,-85,-57,0,0,0
1,1496755523,486,17,-5,-81,-58,0,0,0
1,1496755523,486,18,-3,-83,-57,0,1,0
1,1496755523,486,19,-3,-83,-57,0,0,0
1,1496755523,486,20,-3,-82,-59,0,0,0
1,1496755524,487,1,-3,-81,-58,0,0,0
1,1496755524,487,2,-3,-79,-60,-2,0,0
1,1496755524,487,3,-1,-82,-58,0,0,0
1,1496755524,487,4,-4,-83,-57,0,1,0
1,1496755524,487,5,0,-83,-58,-2,0,0
1,1496755524,487,6,-2,-82,-58,0,1,0
1,1496755524,487,7,-1,-82,-57,0,1,0
1,1496755524,487,8,-4,-82,-60,-2,0,0
1,1496755524,487,9,-6,-86,-59,-2,0,0
1,1496755524,487,10,-1,-79,-60,-2,0,0
1,1496755524,487,11,-6,-83,-59,0,1,0
1,1496755524,487,12,-5,-84,-57,0,0,0
1,1496755524,487,13,-1,-79,-58,-2,0,0
1,1496755524,487,14,-4,-84,-59,0,1,0
1,1496755524,487,15,-4,-84,-59,0,0,0
1,1496755524,487,16,-2,-80,-58,-2,0,0
1,1496755524,487,17,-2,-80,-59,-2,0,0
1,1496755524,487,18,0,-80,-58,-2,0,0
1,1496755524,487,19,-3,-81,-58,0,0,0
1,1496755524,487,20,-1,-81,-58,0,1,0
1,1496755525,488,1,-4,-79,-58,-2,0,0
1,1496755525,488,2,-4,-81,-59,-2,1,0
1,1496755525,488,3,-5,-85,-58,-2,1,0
1,1496755525,488,4,-2,-80,-59,-2,0,0
1,1496755525,488,5,-2,-79,-59,-2,0,0
1,1496755525,488,6,-4,-80,-59,0,0,0
1,1496755525,488,7,-2,-79,-57,-2,0,0
1,1496755525,488,8,-3,-82,-58,-2,0,0
1,1496755525,488,9,-2,-82,-56,0,0,0
1,1496755525,488,10,-4,-83,-57,-2,1,0
1,1496755525,488,11,-3,-83,-58,-2,0,0
1,1496755525,488,12,-1,-78,-55,0,0,0
1,1496755525,488,13,-3,-80,-57,0,0,0
1,1496755525,488,14,-5,-84,-58,0,1,0
1,1496755525,488,15,0,-79,-55,0,0,0
1,1496755525,488,16,-3,-82,-59,-2,0,0
1,1496755525,488,17,-4,-83,-57,0,1,0
1,1496755525,488,18,-4,-82,-57,-2,0,0
1,1496755525,488,19,-1,-79,-58,-2,0,0
1,1496755525,488,20,0,-81,-57,0,1,0
1,1496755526,489,1,-2,-81,-57,0,0,0
1,1496755526,489,2,-4,-85,-57,-2,1,0
1,1496755526,489,3,-3,-82,-58,0,0,0
1,1496755526,489,4,-5,-80,-56,0,0,0
1,1496755526,489,5,-6,-86,-60,0,0,0
1,1496755526,489,6,-2,-80,-56,-2,0,0
1,1496755526,489,7,0,-79,-55,0,0,0
1,1496755526,489,8,-6,-85,-58,0,0,0
1,1496755526,489,9,-1,-83,-55,0,1,0
1,1496755526,489,10,-2,-81,-56,-2,0,0
1,1496755526,489,11,0,-80,-58,0,1,0
1,1496755526,489,12,-2,-82,-55,0,1,0
1,1496755526,489,13,-4,-82,-59,-2,0,0
1,1496755526,489,14,0,-79,-56,0,1,0
1,1496755526,489,15,-2,-81,-57,0,0,0
1,1496755526,489,16,-7,-86,-60,-2,0,0
1,1496755526,489,17,-1,-83,-58,0,0,0
1,1496755526,489,18,-3,-81,-60,0,0,0
1,1496755526,489,19,-4,-85,-57,0,0,0
1,1496755526,489,20,-3,-80,-59,0,0,0
1,1496755527,490,1,-1,-82,-57,-2,0,0
1,1496755527,490,2,-3,-84,-59,0,0,0
1,1496755527,490,3,-1,-82,-56,0,1,0
1,1496755527,490,4,-1,-82,-59,-2,0,0
1,1496755527,490,5,-5,-84,-60,-2,0,0
1,1496755527,490,6,-2,-79,-57,-2,0,0
1,1496755527,490,7,-4,-84,-59,0,1,0
1,1496755527,490,8,-4,-82,-56,0,1,0
1,1496755527,490,9,-3,-79,-58,-2,0,0
1,1496755527,490,10,0,-80,-57,0,1,0
1,1496755527,490,11,-1,-85,-57,0,1,0
1,1496755527,490,12,-3,-81,-57,-2,0,0
1,1496755527,490,13,-4,-83,-59,0,0,0
1,1496755527,490,14,-3,-83,-56,-2,0,0
1,1496755527,490,15,-3,-83,-60,-2,1,0
1,1496755527,490,16,-3,-82,-59,-2,1,0
1,1496755527,490,17,-5,-81,-58,-2,0,0
1,1496755527,490,18,-4,-83,-58,0,1,0
1,1496755527,490,19,-4,-83,-59,0,1,0
1,1496755527,490,20,-1,-81,-59,0,0,0
1,1496755528,491,1,-4,-83,-59,-2,1,0
1,1496755528,491,2,-5,-81,-58,-2,0,0
1,1496755528,491,3,-3,-84,-58,0,1,0
1,1496755528,491,4,-5,-85,-58,0,1,0
1,1496755528,491,5,-4,-79,-59,-2,0,0
1,1496755528,491,6,-4,-82,-60,0,1,0
1,1496755528,491,7,-5,-83,-59,0,0,0
1,1496755528,491,8,-4,-81,-58,-2,0,0
1,1496755528,491,9,-7,-83,-61,-2,1,0
1,1496755528,491,10,-4,-79,-58,-2,0,0
1,1496755528,491,11,-3,-83,-59,-2,0,0
1,1496755528,491,12,-3,-86,-58,-2,1,0
1,1496755528,491,13,-5,-82,-59,-2,0,0
1,1496755528,491,14,-3,-83,-59,0,1,0
1,1496755528,491,15,-1,-81,-57,0,1,0
1,1496755528,491,16,-3,-81,-60,-2,0,0
1,1496755528,491,17,-5,-82,-59,-2,0,0
1,1496755528,491,18,-4,-81,-57,-2,0,0
1,1496755528,491,19,-3,-83,-59,0,1,0
1,1496755528,491,20,-3,-85,-57,0,0,0
1,1496755529,492,1,-4,-78,-57,-2,0,0
1,1496755529,492,2,-1,-82,-58,0,0,0
1,1496755529,492,3,0,-82,-58,0,1,0
1,1496755529,492,4,-2,-81,-58,0,0,0
1,1496755529,492,5,-4,-84,-60,-2,1,0
1,1496755529,492,6,-2,-80,-59,-2,0,0
1,1496755529,492,7,-4,-82,-58,-2,1,0
1,1496755529,492,8,-4,-81,-58,0,0,0
1,1496755529,492,9,-1,-80,-56,0,0,0
1,1496755529,492,10,-3,-84,-59,0,0,0
1,1496755529,492,11,-3,-81,-57,0,0,0
1,1496755529,492,12,-4,-82,-59,-2,0,0
1,1496755529,492,13,-3,-83,-57,0,1,0
1,1496755529,492,14,-4,-78,-58,-2,0,0
1,1496755529,492,15,-1,-83,-58,0,1,0
1,1496755529,492,16,-3,-83,-58,0,1,0
1,1496755529,492,17,-4,-81,-57,-2,0,0
1,1496755529,492,18,-2,-82,-59,0,1,0
1,1496755529,492,19,-1,-78,-58,0,1,0
1,1496755529,492,20,-1,-82,-58,0,0,0
1,1496755530,492,1,-1,-83,-58,0,1,0
1,1496755530,492,2,-2,-79,-60,-2,0,0
1,1496755530,492,3,-2,-84,-56,0,1,0
1,1496755530,492,4,-1,-82,-58,0,1,0
1,1496755530,492,5,-4,-80,-58,-2,0,0
1,1496755530,492,6,-2,-83,-57,0,0,0
1,1496755530,492,7,-2,-85,-56,0,1,0
1,1496755530,492,8,-6,-84,-60,-2,0,0
1,1496755530,492,9,-2,-85,-58,0,1,0
1,1496755530,492,10,-5,-81,-60,0,0,0
1,1496755530,492,11,-4,-84,-58,0,1,0
1,1496755530,492,12,-4,-82,-59,-2,0,0
1,1496755530,492,13,-3,-83,-57,0,1,0
1,1496755530,492,14,-4,-78,-58,-2,0,0
1,1496755530,492,15,-1,-83,-58,0,1,0
1,1496755530,492,16,-3,-83,-58,0,1,0
1,1496755530,492,17,-4,-81,-57,-2,0,0
1,1496755530,492,18,-2,-82,-59,0,1,0
1,1496755530,492,19,-1,-78,-58,0,1,0
1,1496755530,492,20,-1,-82,-58,0,0,0
1,1496755531,493,1,-1,-83,-58,0,1,0
1,1496755531,493,2,-2,-79,-60,-2,0,0
1,1496755531,493,3,-2,-84,-56,0,1,0
1,1496755531,493,4,-1,-82,-58,0,1,0
1,1496755531,493,5,-4,-80,-58,-2,0,0
1,1496755531,493,6,-2,-83,-57,0,0,0
1,1496755531,493,7,-2,-85,-56,0,1,0
1,1496755531,493,8,-6,-84,-60,-2,0,0
1,1496755531,493,9,-2,-85,-58,0,1,0
1,1496755531,493,10,-5,-81,-60,0,0,0
1,1496755531,493,11,-4,-84,-58,0,1,0
1,1496755531,493,12,-4,-81,-59,-2,0,0
1,1496755531,493,13,-4,-82,-58,-2,0,0
1,1496755531,493,14,-1,-81,-55,0,1,0
1,1496755531,493,15,-3,-85,-58,0,0,0
1,1496755531,493,16,-5,-84,-60,-2,1,0
1,1496755531,493,17,-5,-83,-60,0,0,0
1,1496755531,493,18,-2,-79,-59,-2,0,0
1,1496755531,493,19,-6,-85,-61,0,0,0
1,1496755531,493,20,-2,-83,-56,0,0,0
1,1496755533,495,1,0,-80,-57,0,0,0
1,1496755533,495,2,-5,-82,-58,-2,0,0
1,1496755533,495,3,-1,-81,-55,0,1,0
1,1496755533,495,4,-3,-82,-58,-2,1,0
1,1496755533,495,5,-1,-82,-58,-2,1,0
1,1496755533,495,6,-5,-81,-58,0,0,0
1,1496755533,495,7,0,-79,-58,0,0,0
1,1496755533,495,8,-3,-84,-58,0,0,0
1,1496755533,495,9,-2,-79,-55,0,0,0
1,1496755533,495,10,-5,-82,-59,-2,0,0
1,1496755533,495,11,-1,-83,-54,0,1,0
1,1496755533,495,12,-1,-79,-57,0,0,0
1,1496755533,495,13,-3,-84,-57,0,1,0
1,1496755533,495,14,-4,-82,-57,0,0,0
1,1496755533,495,15,0,-78,-58,-2,0,0
1,1496755533,495,16,-6,-83,-59,0,0,0
1,1496755533,495,17,-1,-84,-55,0,0,0
1,1496755533,495,18,-5,-84,-61,0,0,0
1,1496755533,495,19,-4,-83,-57,0,0,0
1,1496755533,495,20,1,-78,-56,-2,0,0
1,1496755533,496,1,-3,-85,-58,0,1,0
1,1496755533,496,2,-3,-79,-57,-2,0,0
1,1496755533,496,3,-2,-79,-57,-2,1,0
1,1496755533,496,4,-4,-84,-59,0,0,0
1,1496755533,496,5,0,-83,-56,0,0,0
1,1496755533,496,6,-1,-82,-58,-2,0,0
1,1496755533,496,7,-4,-85,-59,0,0,0
1,1496755533,496,8,-2,-81,-57,0,0,0
1,1496755533,496,9,-5,-82,-59,0,1,0
1,1496755533,496,10,-2,-82,-56,0,1,0
1,1496755533,496,11,0,-79,-57,-2,0,0
1,1496755533,496,12,-4,-81,-59,0,1,0
1,1496755533,496,13,0,-78,-56,-2,0,0
1,1496755533,496,14,-2,-82,-59,-2,0,0
1,1496755533,496,15,-6,-82,-58,0,0,0
1,1496755533,496,16,-2,-80,-56,0,0,0
1,1496755533,496,17,-5,-85,-59,0,0,0
1,1496755533,496,18,0,-78,-55,0,0,0
1,1496755533,496,19,-3,-81,-58,-2,0,0
1,1496755533,496,20,-3,-85,-56,0,0,0
1,1496755534,497,1,-2,-82,-58,0,0,0
1,1496755534,497,2,-6,-84,-60,0,1,0
1,1496755534,497,3,-3,-81,-58,0,0,0
1,1496755534,497,4,-2,-80,-55,0,0,0
1,1496755534,497,5,-6,-85,-60,0,0,0
1,1496755534,497,6,0,-78,-56,-2,1,0
1,1496755534,497,7,-2,-81,-57,-2,0,0
1,1496755534,497,8,-4,-82,-56,0,1,0
1,1496755534,497,9,-3,-85,-56,0,0,0
1,1496755534,497,10,-4,-85,-58,0,0,0
1,1496755534,497,11,-3,-81,-59,0,0,0
1,1496755534,497,12,-5,-83,-59,-2,0,0
1,1496755534,497,13,-4,-83,-58,0,0,0
1,1496755534,497,14,-3,-80,-57,-2,0,0
1,1496755534,497,15,-1,-81,-58,-2,0,0
1,1496755534,497,16,-3,-83,-56,0,1,0
1,1496755534,497,17,-3,-79,-56,-2,0,0
1,1496755534,497,18,-2,-83,-58,0,0,0
1,1496755534,497,19,-4,-82,-57,0,0,0
1,1496755534,497,20,-1,-79,-56,0,0,0
1,1496755535,498,1,-2,-85,-60,0,1,0
1,1496755535,498,2,-5,-83,-57,-2,0,0
1,1496755535,498,3,-4,-83,-55,-2,0,0
1,1496755535,498,4,-5,-85,-59,-2,0,0
1,1496755535,498,5,-1,-82,-56,0,0,0
1,1496755535,498,6,-5,-83,-60,0,1,0
1,1496755535,498,7,-3,-82,-57,0,0,0
1,1496755535,498,8,-3,-82,-57,0,0,0
1,1496755535,498,9,-5,-85,-60,0,0,0
1,1496755535,498,10,0,-77,-56,-2,0,0
1,1496755535,498,11,-5,-81,-59,-2,0,0
1,1496755535,498,12,-6,-84,-57,0,1,0
1,1496755535,498,13,-3,-80,-58,0,0,0
1,1496755535,498,14,0,-83,-57,0,1,0
1,1496755535,498,15,-3,-81,-58,0,0,0
1,1496755535,498,16,-1,-80,-55,0,0,0
1,1496755535,498,17,-4,-82,-59,0,0,0
1,1496755535,498,18,-4,-82,-58,-2,0,0
1,1496755535,498,19,1,-79,-57,-2,0,0
1,1496755535,498,20,0,-80,-57,0,1,0
1,1496755536,499,1,-2,-83,-56,0,1,0
1,1496755536,499,2,-3,-84,-59,-2,0,0
1,1496755536,499,3,0,-82,-58,0,0,0
1,1496755536,499,4,0,-82,-58,0,0,0
1,1496755536,499,5,-3,-81,-59,0,1,0
1,1496755536,499,6,0,-79,-56,0,0,0
1,1496755536,499,7,-3,-80,-58,0,0,0
1,1496755536,499,8,-5,-86,-59,0,0,0
1,1496755536,499,9,-4,-82,-59,0,1,0
1,1496755536,499,10,-3,-82,-59,0,0,0
1,1496755536,499,11,-6,-83,-57,0,1,0
1,1496755536,499,12,-3,-84,-57,0,1,0
1,1496755536,499,13,-4,-82,-59,0,0,0
1,1496755536,499,14,-4,-85,-56,0,1,0
1,1496755536,499,15,-4,-80,-57,0,0,0
1,1496755536,499,16,-2,-83,-56,0,0,0
1,1496755536,499,17,0,-83,-58,0,0,0
1,1496755536,499,18,-3,-81,-58,-2,0,0
1,1496755536,499,19,0,-84,-57,0,0,0
1,1496755536,499,20,-5,-80,-58,0,0,0
1,1496755537,500,1,-6,-82,-57,-2,0,0
1,1496755537,500,2,-1,-81,-56,0,1,0
1,1496755537,500,3,-4,-84,-58,0,1,0
1,1496755537,500,4,-4,-83,-60,-2,0,0
1,1496755537,500,5,-2,-84,-59,-2,0,0
1,1496755537,500,6,-2,-79,-59,-2,0,0
1,1496755537,500,7,-7,-85,-61,-2,0,0
1,1496755537,500,8,-4,-82,-59,0,0,0
1,1496755537,500,9,0,-79,-58,-2,0,0
1,1496755537,500,10,-6,-87,-58,0,0,0
1,1496755537,500,11,-3,-83,-60,0,1,0
1,1496755537,500,12,0,-80,-59,0,0,0
1,1496755537,500,13,-3,-82,-59,-2,0,0
1,1496755537,500,14,-2,-79,-56,-2,0,0
1,1496755537,500,15,0,-81,-58,0,0,0
1,1496755537,500,16,-6,-84,-58,0,1,0
1,1496755537,500,17,-3,-82,-59,-2,0,0
1,1496755537,500,18,0,-83,-57,0,1,0
1,1496755537,500,19,-2,-82,-58,0,1,0
1,1496755537,500,20,-5,-82,-57,-2,0,0
1,1496755538,501,1,-4,-82,-59,0,0,0
1,1496755538,501,2,-4,-83,-58,-2,0,0
1,1496755538,501,3,-4,-83,-58,-2,0,0
1,1496755538,501,4,-5,-81,-59,-2,0,0
1,1496755538,501,5,1,-80,-58,-2,0,0
1,1496755538,501,6,-7,-84,-59,-2,0,0
1,1496755538,501,7,-2,-85,-58,0,1,0
1,1496755538,501,8,-3,-79,-59,-2,0,0
1,1496755538,501,9,-3,-79,-58,-2,0,0
1,1496755538,501,10,-4,-83,-58,0,0,0
1,1496755538,501,11,0,-79,-58,-2,0,0
1,1496755538,501,12,-6,-82,-58,-2,0,0
1,1496755538,501,13,-4,-81,-57,0,0,0
1,1496755538,501,14,-2,-82,-57,-2,0,0
1,1496755538,501,15,-4,-82,-57,-2,0,0
1,1496755538,501,16,-3,-81,-56,-2,0,0
1,1496755538,501,17,-3,-82,-59,-2,0,0
1,1496755538,501,18,-3,-83,-58,0,0,0
1,1496755538,501,19,-4,-82,-57,-2,0,0
1,1496755538,501,20,-3,-80,-59,0,0,0
1,1496755539,502,1,-2,-82,-60,0,0,0
1,1496755539,502,2,-6,-79,-59,-2,0,0
1,1496755539,502,3,-4,-82,-58,0,0,0
1,1496755539,502,4,-1,-81,-57,0,0,0
1,1496755539,502,5,0,-79,-56,-2,0,0
1,1496755539,502,6,-6,-83,-58,0,1,0
1,1496755539,502,7,1,-78,-55,-2,0,0
1,1496755539,502,8,-4,-80,-58,-2,0,0
1,1496755539,502,9,-4,-81,-55,0,1,0
1,1496755539,502,10,-1,-79,-58,-2,0,0
1,1496755539,502,11,-4,-78,-59,-2,0,0
1,1496755539,502,12,-5,-85,-58,0,0,0
1,1496755539,502,13,0,-81,-60,0,0,0
1,1496755539,502,14,-2,-81,-58,0,0,0
1,1496755539,502,15,-3,-81,-57,0,0,0
1,1496755539,502,16,-1,-81,-57,0,0,0
1,1496755539,502,17,-1,-81,-59,0,0,0
1,1496755539,502,18,-1,-81,-56,-2,0,0
1,1496755539,502,19,2,-80,-57,0,0,0
1,1496755539,502,20,-3,-81,-57,0,1,0
1,1496755540,503,1,0,-78,-54,-2,0,0
1,1496755540,503,2,-4,-85,-59,-2,1,0
1,1496755540,503,3,-1,-84,-57,0,0,0
1,1496755540,503,4,-6,-80,-59,0,0,0
1,1496755540,503,5,-6,-83,-58,0,0,0
1,1496755540,503,6,-5,-81,-58,-2,0,0
1,1496755540,503,7,-3,-81,-57,-2,0,0
1,1496755540,503,8,-6,-86,-58,0,0,0
1,1496755540,503,9,0,-81,-57,0,1,0
1,1496755540,503,10,0,-81,-57,0,0,0
1,1496755540,503,11,-2,-82,-58,0,1,0
1,1496755540,503,12,-1,-83,-56,0,0,0
1,1496755540,503,13,-5,-85,-61,0,0,0
1,1496755540,503,14,0,-83,-58,0,0,0
1,1496755540,503,15,-2,-81,-57,0,0,0
1,1496755540,503,16,-1,-83,-56,0,1,0
1,1496755540,503,17,-5,-84,-59,0,0,0
1,1496755540,503,18,-4,-79,-59,-2,0,0
1,1496755540,503,19,-4,-85,-58,0,1,0
1,1496755540,503,20,0,-78,-56,-2,0,0
1,1496755540,503,1,-3,-82,-58,0,0,0
1,1496755540,503,2,-4,-81,-58,0,1,0
1,1496755540,503,3,-5,-82,-57,0,0,0
1,1496755540,503,4,-1,-83,-58,-2,0,0
1,1496755540,503,5,-4,-83,-60,0,0,0
1,1496755540,503,6,-5,-81,-58,-2,0,0
1,1496755540,503,7,-3,-81,-57,-2,0,0
1,1496755540,503,8,-6,-86,-58,0,0,0
1,1496755540,503,9,0,-81,-57,0,1,0
1,1496755540,503,10,0,-81,-57,0,0,0
1,1496755540,503,11,-2,-82,-58,0,1,0
1,1496755540,503,12,-1,-83,-56,0,0,0
1,1496755540,503,13,-5,-85,-61,0,0,0
1,1496755540,503,14,0,-83,-58,0,0,0
1,1496755540,503,15,-2,-81,-57,0,0,0
1,1496755540,503,16,-1,-83,-56,0,1,0
1,1496755540,503,17,-5,-84,-59,0,0,0
1,1496755540,503,18,-4,-79,-59,-2,0,0
1,1496755540,503,19,-4,-85,-58,0,1,0
1,1496755540,503,20,0,-78,-56,-2,0,0
1,1496755541,504,1,-3,-82,-58,0,0,0
1,1496755541,504,2,-4,-81,-58,0,1,0
1,1496755541,504,3,-5,-82,-57,0,0,0
1,1496755541,504,4,-1,-83,-58,-2,0,0
1,1496755541,504,5,-4,-83,-60,0,0,0
1,1496755541,504,6,-6,-79,-57,-2,0,0
1,1496755541,504,7,-3,-81,-57,0,1,0
1,1496755541,504,8,-1,-83,-55,0,1,0
1,1496755541,504,9,-1,-81,-57,0,0,0
1,1496755541,504,10,-1,-81,-59,0,1,0
1,1496755541,504,11,-5,-83,-58,0,1,0
1,1496755541,504,12,-5,-81,-59,-2,0,0
1,1496755541,504,13,-5,-83,-60,-2,0,0
1,1496755541,504,14,0,-80,-56,0,0,0
1,1496755541,504,15,-3,-82,-58,-2,0,0
1,1496755541,504,16,-2,-83,-58,0,0,0
1,1496755541,504,17,1,-79,-57,-2,0,0
1,1496755541,504,18,-3,-83,-60,-2,0,0
1,1496755541,504,19,-4,-81,-58,0,1,0
1,1496755541,504,20,-2,-80,-58,-2,0,0
1,1496755542,505,1,-5,-80,-57,-2,0,0
1,1496755542,505,2,-5,-81,-57,0,0,0
1,1496755542,505,3,-5,-81,-59,-2,0,0
1,1496755542,505,4,-4,-80,-58,-2,0,0
1,1496755542,505,5,0,-80,-57,0,0,0
1,1496755542,505,6,-4,-83,-58,-2,0,0
1,1496755542,505,7,-6,-83,-59,-2,1,0
1,1496755542,505,8,0,-79,-57,-2,1,0
1,1496755542,505,9,0,-80,-58,-2,0,0
1,1496755542,505,10,-4,-82,-55,0,1,0
1,1496755542,505,11,-3,-80,-56,-2,0,0
1,1496755542,505,12,-7,-83,-60,-2,0,0
1,1496755542,505,13,-4,-84,-59,0,0,0
1,1496755542,505,14,-2,-79,-58,-2,0,0
1,1496755542,505,15,-6,-83,-57,-2,1,0
1,1496755542,505,16,-5,-81,-59,0,0,0
1,1496755542,505,17,-1,-79,-57,0,0,0
1,1496755542,505,18,-5,-81,-59,0,1,0
1,1496755542,505,19,-1,-81,-56,0,0,0
1,1496755542,505,20,-1,-82,-56,-2,0,0
1,1496755543,506,1,-2,-85,-59,0,1,0
1,1496755543,506,2,0,-79,-55,0,0,0
1,1496755543,506,3,-3,-81,-57,-2,0,0
1,1496755543,506,4,-3,-82,-56,0,1,0
1,1496755543,506,5,-4,-79,-59,0,0,0
1,1496755543,506,6,-3,-83,-60,-2,0,0
1,1496755543,506,7,-5,-84,-58,0,0,0
1,1496755543,506,8,-1,-81,-59,-2,0,0
1,1496755543,506,9,-1,-83,-57,0,1,0
1,1496755543,506,10,-10,-83,-61,3,-4,3
1,1496755543,506,11,0,-83,-51,-2,0,1
1,1496755543,506,12,-7,-84,-53,5,0,0
1,1496755543,506,13,-4,-82,-56,3,-8,3
1,1496755543,506,14,-8,-82,-57,5,-2,-6
1,1496755543,506,15,-5,-83,-54,0,0,0
1,1496755543,506,16,-7,-86,-55,-4,5,-2
1,1496755543,506,17,-6,-85,-52,-10,9,-4
1,1496755543,506,18,0,-82,-55,-16,13,-8
1,1496755543,506,19,-2,-81,-58,-4,3,-2
1,1496755543,506,20,-4,-85,-57,-2,1,0
1,1496755544,507,1,-3,-82,-57,0,1,0
1,1496755544,507,2,-4,-80,-58,-2,0,0
1,1496755544,507,3,-4,-83,-57,0,1,0
1,1496755544,507,4,-4,-86,-57,0,1,0
1,1496755544,507,5,-3,-83,-58,-2,0,0
1,1496755544,507,6,-3,-82,-58,0,1,0
1,1496755544,507,7,-3,-82,-57,0,1,0
1,1496755544,507,8,-4,-84,-60,-2,0,0
1,1496755544,507,9,-4,-83,-58,-2,0,0
1,1496755544,507,10,-2,-79,-58,0,0,0
1,1496755544,507,11,-6,-82,-59,-2,1,0
1,1496755544,507,12,-4,-82,-57,-2,1,0
1,1496755544,507,13,-3,-81,-60,-2,0,0
1,1496755544,507,14,-3,-84,-57,-2,1,0
1,1496755544,507,15,-2,-84,-58,-2,1,0
1,1496755544,507,16,-3,-81,-59,-2,0,0
1,1496755544,507,17,-3,-80,-58,-2,0,0
1,1496755544,507,18,-2,-81,-57,0,0,0
1,1496755544,507,19,-2,-79,-59,-2,0,0
1,1496755544,507,20,-4,-83,-57,0,1,0
1,1496755545,508,1,-2,-80,-56,0,0,0
1,1496755545,508,2,-2,-81,-60,-2,0,0
1,1496755545,508,3,-4,-83,-58,-2,0,0
1,1496755545,508,4,-2,-80,-57,-2,0,0
1,1496755545,508,5,-2,-79,-57,0,0,0
1,1496755545,508,6,-2,-81,-57,0,1,0
1,1496755545,508,7,-1,-81,-56,-2,0,0
1,1496755545,508,8,-2,-80,-59,0,0,0
1,1496755545,508,9,-1,-82,-55,0,0,0
1,1496755545,508,10,-1,-80,-56,-2,0,0
1,1496755545,508,11,-2,-78,-57,-2,0,0
1,1496755545,508,12,-4,-84,-57,0,0,0
1,1496755545,508,13,-3,-82,-57,0,0,0
1,1496755545,508,14,-3,-83,-60,0,1,0
1,1496755545,508,15,-1,-80,-57,0,0,0
1,1496755545,508,16,-1,-80,-58,0,0,0
1,1496755545,508,17,-4,-83,-59,0,1,0
1,1496755545,508,18,-2,-79,-57,0,0,0
1,1496755545,508,19,-1,-81,-56,0,0,0
1,1496755545,508,20,-7,-86,-58,0,1,0
1,1496755546,509,1,-2,-83,-57,0,1,0
1,1496755546,509,2,-2,-78,-57,-2,0,0
1,1496755546,509,3,-3,-83,-56,0,1,0
1,1496755546,509,4,0,-79,-55,0,1,0
1,1496755546,509,5,-2,-80,-59,-2,0,0
1,1496755546,509,6,-2,-80,-56,0,0,0
1,1496755546,509,7,-4,-85,-56,0,0,0
1,1496755546,509,8,-5,-85,-59,0,0,0
1,1496755546,509,9,-5,-83,-59,0,1,0
1,1496755546,509,10,-2,-79,-58,0,0,0
1,1496755546,509,11,-5,-84,-57,-2,1,0
1,1496755546,509,12,-6,-81,-59,0,1,0
1,1496755546,509,13,-1,-79,-59,-2,0,0
1,1496755546,509,14,-4,-86,-57,0,0,0
1,1496755546,509,15,-2,-82,-58,0,0,0
1,1496755546,509,16,-2,-81,-58,-2,0,0
1,1496755546,509,17,-3,-83,-58,-2,0,0
1,1496755546,509,18,-4,-79,-57,-2,0,0
1,1496755546,509,19,-2,-82,-58,0,0,0
1,1496755546,509,20,-3,-82,-59,0,1,0
1,1496755547,510,1,-5,-80,-58,-2,0,0
1,1496755547,510,2,-6,-84,-58,-2,1,0
1,1496755547,510,3,-4,-83,-58,-2,1,0
1,1496755547,510,4,-2,-79,-59,-2,0,0
1,1496755547,510,5,-2,-78,-59,-2,0,0
1,1496755547,510,6,-1,-79,-57,0,0,0
1,1496755547,510,7,-3,-78,-58,-2,0,0
1,1496755547,510,8,-5,-82,-58,-2,0,0
1,1496755547,510,9,-3,-84,-58,0,0,0
1,1496755547,510,10,-1,-82,-57,-2,0,0
1,1496755547,510,11,-4,-82,-58,-2,0,0
1,1496755547,510,12,-4,-82,-57,-2,0,0
1,1496755547,510,13,-1,-79,-57,0,0,0
1,1496755547,510,14,0,-80,-56,0,1,0
1,1496755547,510,15,-2,-81,-57,0,0,0
1,1496755547,510,16,-1,-79,-58,-2,0,0
1,1496755547,510,17,-3,-81,-56,0,1,0
1,1496755547,510,18,-1,-78,-58,-2,0,0
1,1496755547,510,19,-3,-79,-59,-2,0,0
1,1496755547,510,20,-5,-82,-57,0,0,0
1,1496755548,511,1,-4,-82,-58,0,0,0
1,1496755548,511,2,-7,-86,-60,0,0,0
1,1496755548,511,3,-2,-80,-57,-2,0,0
1,1496755548,511,4,-2,-82,-58,-2,0,0
1,1496755548,511,5,-2,-81,-55,0,1,0
1,1496755548,511,6,-1,-81,-67,-2,0,0
1,1496755548,511,7,-11,-80,-64,9,-14,9
1,1496755548,511,8,-2,-85,-48,1,-2,0
1,1496755548,511,9,-11,-84,-62,3,0,-4
1,1496755548,511,10,-6,-85,-55,0,0,0
1,1496755548,511,11,-6,-80,-54,-2,1,-2
1,1496755548,511,12,-7,-78,-54,-2,1,0
1,1496755548,511,13,-5,-85,-54,-2,1,0
1,1496755548,511,14,-6,-83,-54,0,0,0
1,1496755548,511,15,-4,-83,-53,0,0,0
1,1496755548,511,16,-3,-87,-56,0,0,0
1,1496755548,511,17,-8,-84,-57,-4,3,0
1,1496755548,511,18,-4,-82,-56,-2,1,0
1,1496755548,511,19,-2,-77,-57,-4,3,0
1,1496755548,511,20,-3,-78,-53,-2,1,0
1,1496755548,512,1,-6,-85,-58,-2,1,0
1,1496755548,512,2,-3,-81,-57,-2,1,0
1,1496755548,512,3,-3,-86,-56,-2,0,0
1,1496755548,512,4,-6,-85,-58,0,0,0
1,1496755548,512,5,-4,-81,-55,0,0,0
1,1496755548,512,6,-5,-86,-58,0,0,0
1,1496755548,512,7,-4,-82,-57,0,1,0
1,1496755548,512,8,-4,-83,-58,0,0,0
1,1496755548,512,9,-4,-80,-59,-2,0,0
1,1496755548,512,10,-4,-88,-55,0,1,0
1,1496755548,512,11,-4,-82,-56,-2,1,0
1,1496755548,512,12,-3,-77,-56,0,0,0
1,1496755548,512,13,-5,-83,-57,0,0,0
1,1496755548,512,14,-5,-81,-56,-2,0,0
1,1496755548,512,15,-3,-81,-56,0,0,0
1,1496755548,512,16,-5,-84,-59,0,0,0
1,1496755548,512,17,-5,-80,-54,-2,0,0
1,1496755548,512,18,-4,-83,-57,-2,0,0
1,1496755548,512,19,-4,-77,-56,0,1,0
1,1496755548,512,20,-5,-82,-55,-2,0,0
1,1496755549,513,1,-3,-82,-56,0,0,0
1,1496755549,513,2,-3,-84,-57,0,0,0
1,1496755549,513,3,-3,-80,-53,-2,0,0
1,1496755549,513,4,-2,-79,-55,0,1,0
1,1496755549,513,5,-5,-83,-58,0,0,0
1,1496755549,513,6,-6,-78,-56,-2,0,0
1,1496755549,513,7,-6,-84,-59,-2,0,0
1,1496755549,513,8,-3,-86,-56,-2,0,0
1,1496755549,513,9,-4,-83,-59,-2,0,0
1,1496755549,513,10,-3,-81,-57,-2,0,0
1,1496755549,513,11,-6,-84,-58,0,0,0
1,1496755549,513,12,-5,-80,-58,-2,0,0
1,1496755549,513,13,-6,-84,-57,-2,0,0
1,1496755549,513,14,-5,-82,-60,0,0,0
1,1496755549,513,15,-7,-83,-57,-2,0,0
1,1496755549,513,16,-4,-84,-57,-2,0,0
1,1496755549,513,17,-6,-85,-60,-2,0,0
1,1496755549,513,18,-2,-80,-54,0,1,0
1,1496755549,513,19,-3,-81,-57,-2,0,0
1,1496755549,513,20,-6,-86,-58,-2,0,0
1,1496755550,513,1,-6,-84,-57,-2,0,0
1,1496755550,513,2,-4,-83,-57,-2,0,0
1,1496755550,513,3,-3,-85,-59,0,0,0
1,1496755550,513,4,-2,-81,-55,0,0,0
1,1496755550,513,5,-5,-83,-56,0,0,0
1,1496755550,513,6,-1,-79,-54,0,1,0
1,1496755550,513,7,-2,-81,-56,0,0,0
1,1496755550,513,8,-4,-84,-57,-2,0,0
1,1496755550,513,9,-3,-84,-57,0,0,0
1,1496755550,513,10,-5,-83,-58,0,0,0
1,1496755550,513,11,-2,-80,-57,-2,0,0
1,1496755550,513,12,0,-81,-55,0,0,0
1,1496755550,513,13,-4,-78,-57,0,0,0
1,1496755550,513,14,-5,-85,-59,-2,0,0
1,1496755550,513,15,-3,-78,-57,-2,1,0
1,1496755550,513,16,-3,-80,-56,-2,0,0
1,1496755550,513,17,-6,-84,-57,-2,0,0
1,1496755550,513,18,-4,-82,-56,-2,0,0
1,1496755550,513,19,-3,-81,-57,-2,0,0
1,1496755550,513,20,-6,-86,-58,-2,0,0
1,1496755550,514,1,-6,-84,-57,-2,0,0
1,1496755550,514,2,-4,-83,-57,-2,0,0
1,1496755550,514,3,-3,-85,-59,0,0,0
1,1496755550,514,4,-2,-81,-55,0,0,0
1,1496755550,514,5,-5,-83,-56,0,0,0
1,1496755550,514,6,-1,-79,-54,0,1,0
1,1496755550,514,7,-2,-81,-56,0,0,0
1,1496755550,514,8,-4,-84,-57,-2,0,0
1,1496755550,514,9,-3,-84,-57,0,0,0
1,1496755550,514,10,-5,-83,-58,0,0,0
1,1496755550,514,11,-2,-80,-57,-2,0,0
1,1496755550,514,12,0,-81,-55,0,0,0
1,1496755550,514,13,-4,-78,-57,0,0,0
1,1496755550,514,14,-5,-85,-59,-2,0,0
1,1496755550,514,15,-3,-78,-57,-2,1,0
1,1496755550,514,16,-3,-80,-56,-2,0,0
1,1496755550,514,17,-6,-84,-57,-2,0,0
1,1496755550,514,18,-4,-82,-56,-2,0,0
1,1496755550,514,19,-3,-80,-56,0,1,0
1,1496755550,514,20,-4,-82,-57,-2,0,0
1,1496755551,515,1,-6,-83,-56,0,1,0
1,1496755551,515,2,-4,-89,-56,0,0,0
1,1496755551,515,3,-7,-79,-59,-2,0,0
1,1496755551,515,4,-5,-84,-57,-2,0,0
1,1496755551,515,5,-3,-82,-58,0,0,0
1,1496755551,515,6,-4,-78,-57,-2,0,0
1,1496755551,515,7,-2,-81,-55,-2,0,0
1,1496755551,515,8,-2,-80,-59,0,1,0
1,1496755551,515,9,-4,-82,-58,-2,1,0
1,1496755551,515,10,-5,-83,-57,0,0,0
1,1496755551,515,11,-5,-83,-59,0,1,0
1,1496755551,515,12,-4,-83,-59,0,0,0
1,1496755551,515,13,-3,-83,-58,-2,0,0
1,1496755551,515,14,-7,-84,-62,-2,0,-2
1,1496755551,515,15,-4,-82,-58,-2,1,0
1,1496755551,515,16,-5,-81,-58,0,1,0
1,1496755551,515,17,-4,-81,-56,0,0,0
1,1496755551,515,18,-3,-80,-56,-2,0,0
1,1496755551,515,19,-3,-85,-57,0,1,0
1,1496755551,515,20,-4,-83,-59,0,1,0
1,1496755552,516,1,-2,-79,-54,-2,0,0
1,1496755552,516,2,-4,-83,-56,0,1,-2
1,1496755552,516,3,-3,-83,-58,0,1,0
1,1496755552,516,4,-4,-84,-57,-2,0,0
1,1496755552,516,5,-4,-85,-56,0,0,0
1,1496755552,516,6,-3,-80,-56,0,0,0
1,1496755552,516,7,-3,-81,-56,0,0,0
1,1496755552,516,8,-3,-82,-57,0,0,0
1,1496755552,516,9,0,-84,-56,-2,0,0
1,1496755552,516,10,-6,-86,-57,0,0,0
1,1496755552,516,11,-3,-86,-57,0,1,0
1,1496755552,516,12,-3,-80,-58,-2,0,0
1,1496755552,516,13,-4,-81,-58,0,0,0
1,1496755552,516,14,-2,-80,-56,-2,0,0
1,1496755552,516,15,-4,-78,-56,0,0,0
1,1496755552,516,16,-4,-82,-56,-2,0,0
1,1496755552,516,17,-4,-81,-55,0,0,0
1,1496755552,516,18,-4,-82,-56,-2,0,0
1,1496755552,516,19,-4,-85,-56,0,1,0
1,1496755552,516,20,-4,-82,-56,-2,0,0
1,1496755553,517,1,-3,-83,-57,0,1,0
1,1496755553,517,2,-4,-82,-59,-2,0,0
1,1496755553,517,3,-4,-83,-58,0,0,0
1,1496755553,517,4,-3,-83,-56,0,1,0
1,1496755553,517,5,-3,-82,-57,0,0,0
1,1496755553,517,6,-2,-82,-57,0,0,0
1,1496755553,517,7,-4,-82,-56,0,1,0
1,1496755553,517,8,-4,-79,-56,0,0,0
1,1496755553,517,9,-3,-80,-56,-2,0,0
1,1496755553,517,10,-5,-80,-56,0,1,0
1,1496755553,517,11,-1,-81,-58,-2,0,0
1,1496755553,517,12,-4,-79,-55,-2,0,0
1,1496755553,517,13,-5,-81,-57,-2,0,0
1,1496755553,517,14,-1,-82,-56,0,0,0
1,1496755553,517,15,-3,-80,-57,0,0,0
1,1496755553,517,16,-2,-78,-54,-2,0,0
1,1496755553,517,17,-3,-81,-54,0,1,0
1,1496755553,517,18,-2,-82,-57,0,1,0
1,1496755553,517,19,-4,-81,-57,-2,0,0
1,1496755553,517,20,-3,-81,-56,0,1,0
1,1496755554,518,1,-4,-83,-59,-2,0,0
1,1496755554,518,2,-4,-78,-57,-2,0,0
1,1496755554,518,3,-4,-81,-58,-2,0,0
1,1496755554,518,4,-5,-81,-57,-2,0,0
1,1496755554,518,5,-5,-79,-56,-2,0,0
1,1496755554,518,6,-4,-85,-55,0,1,0
1,1496755554,518,7,-5,-82,-57,-2,0,0
1,1496755554,518,8,-2,-84,-54,-2,0,0
1,1496755554,518,9,-1,-80,-57,0,1,0
1,1496755554,518,10,-5,-80,-58,-2,0,0
1,1496755554,518,11,-3,-81,-55,0,0,0
1,1496755554,518,12,-3,-81,-56,0,0,0
1,1496755554,518,13,-5,-80,-58,-2,0,0
1,1496755554,518,14,-3,-80,-58,0,1,0
1,1496755554,518,15,-4,-83,-55,-2,0,0
1,1496755554,518,16,-5,-81,-57,-2,0,0
1,1496755554,518,17,-4,-82,-59,0,0,0
1,1496755554,518,18,-5,-79,-54,-2,0,0
1,1496755554,518,19,-3,-81,-55,0,0,0
1,1496755554,518,20,-3,-82,-56,0,1,0
1,1496755555,519,1,-5,-81,-57,-2,0,0
1,1496755555,519,2,-4,-83,-56,0,1,0
1,1496755555,519,3,-4,-82,-57,-2,0,0
1,1496755555,519,4,-4,-77,-55,-2,0,0
1,1496755555,519,5,-4,-83,-58,-2,0,0
1,1496755555,519,6,-3,-80,-57,0,1,0
1,1496755555,519,7,-4,-81,-58,-2,0,0
1,1496755555,519,8,-5,-80,-59,0,1,0
1,1496755555,519,9,-6,-85,-61,-2,0,0
1,1496755555,519,10,-3,-83,-57,0,1,0
1,1496755555,519,11,-4,-84,-59,-2,0,0
1,1496755555,519,12,-6,-84,-58,-2,0,0
1,1496755555,519,13,-4,-85,-57,0,1,0
1,1496755555,519,14,-5,-82,-55,-2,0,0
1,1496755555,519,15,-3,-82,-56,-2,0,0
1,1496755555,519,16,-3,-85,-58,0,1,0
1,1496755555,519,17,-3,-79,-55,-2,1,0
1,1496755555,519,18,-2,-80,-56,0,0,0
1,1496755555,519,19,-2,-84,-56,0,0,0
1,1496755555,519,20,-3,-83,-56,0,0,0
1,1496755556,520,1,-1,-82,-57,0,0,0
1,1496755556,520,2,-4,-83,-58,-2,0,0
1,1496755556,520,3,-4,-79,-56,-2,0,0
1,1496755556,520,4,-3,-82,-55,0,1,0
1,1496755556,520,5,-5,-82,-57,-2,0,0
1,1496755556,520,6,-1,-81,-54,0,0,0
1,1496755556,520,7,-2,-80,-56,0,0,0
1,1496755556,520,8,-3,-81,-58,-2,0,0
1,1496755556,520,9,-3,-83,-56,0,1,0
1,1496755556,520,10,-3,-79,-57,-2,0,0
1,1496755556,520,11,-4,-81,-58,-4,0,0
1,1496755556,520,12,-2,-85,-57,0,0,0
1,1496755556,520,13,-3,-80,-57,0,0,0
1,1496755556,520,14,-4,-80,-59,-2,0,0
1,1496755556,520,15,-2,-84,-56,0,0,0
1,1496755556,520,16,-2,-81,-58,0,1,0
1,1496755556,520,17,-5,-83,-58,0,0,0
1,1496755556,520,18,-4,-83,-57,0,0,0
1,1496755556,520,19,-3,-81,-58,0,0,0
1,1496755556,520,20,-5,-83,-58,-2,1,0
1,1496755557,521,1,-4,-82,-57,-2,1,0
1,1496755557,521,2,-3,-83,-61,0,0,0
1,1496755557,521,3,-3,-85,-56,0,0,0
1,1496755557,521,4,-1,-81,-56,0,0,0
1,1496755557,521,5,-1,-82,-55,0,1,0
1,1496755557,521,6,-4,-84,-56,-2,0,0
1,1496755557,521,7,-5,-81,-57,-2,1,0
1,1496755557,521,8,-5,-85,-56,0,1,0
1,1496755557,521,9,-4,-79,-55,0,0,0
1,1496755557,521,10,-4,-81,-57,0,0,0
1,1496755557,521,11,-2,-82,-57,0,0,0
1,1496755557,521,12,-4,-81,-56,-2,0,0
1,1496755557,521,13,-3,-84,-56,0,1,0
1,1496755557,521,14,-5,-82,-57,-2,1,-2
1,1496755557,521,15,-5,-80,-54,-2,0,0
1,1496755557,521,16,-4,-84,-57,0,0,0
1,1496755557,521,17,-5,-82,-56,0,0,0
1,1496755557,521,18,-3,-82,-55,-2,0,0
1,1496755557,521,19,-6,-84,-60,0,0,0
1,1496755557,521,20,-2,-80,-55,-2,0,0
1,1496755558,522,1,-5,-85,-59,-2,0,0
1,1496755558,522,2,-6,-82,-56,-2,0,0
1,1496755558,522,3,-5,-82,-56,-2,1,0
1,1496755558,522,4,-3,-83,-58,0,1,0
1,1496755558,522,5,-2,-78,-53,-2,0,0
1,1496755558,522,6,-3,-81,-56,-2,0,0
1,1496755558,522,7,-4,-85,-59,0,1,0
1,1496755558,522,8,-6,-84,-56,-2,0,0
1,1496755558,522,9,-3,-81,-56,0,1,0
1,1496755558,522,10,-6,-84,-58,0,0,0
1,1496755558,522,11,-3,-79,-56,-2,0,0
1,1496755558,522,12,-3,-82,-56,0,0,0
1,1496755558,522,13,-6,-82,-58,-2,0,0
1,1496755558,522,14,-2,-80,-56,0,1,0
1,1496755558,522,15,-4,-81,-57,-2,0,0
1,1496755558,522,16,-5,-81,-60,-2,0,0
1,1496755558,522,17,-2,-82,-57,0,1,0
1,1496755558,522,18,-3,-82,-55,-2,0,0
1,1496755558,522,19,-4,-78,-53,-2,0,0
1,1496755558,522,20,-4,-83,-58,0,1,0
1,1496755561,528,1,2,-88,-49,0,1,-2
1,1496755561,528,2,2,-79,-51,0,1,-2
1,1496755561,528,3,0,-86,-53,0,1,-2
1,1496755561,528,4,-1,-83,-54,-2,0,0
1,1496755561,528,5,3,-86,-50,-2,0,0
1,1496755561,528,6,3,-86,-50,0,0,0
1,1496755561,528,7,3,-88,-53,-2,0,0
1,1496755561,528,8,3,-87,-54,0,0,0
1,1496755561,528,9,-3,-84,-53,-2,0,0
1,1496755561,528,10,0,-84,-53,0,0,0
1,1496755561,528,11,4,-89,-52,-2,1,0
1,1496755561,528,12,0,-84,-51,-2,0,0
1,1496755561,528,13,2,-86,-53,-4,0,1
1,1496755561,528,14,3,-85,-53,-2,0,1
1,1496755561,528,15,7,-87,-50,0,0,0
1,1496755561,528,16,4,-89,-58,0,1,0
1,1496755561,528,17,0,-86,-55,-2,0,0
1,1496755561,528,18,2,-81,-55,-4,0,0
1,1496755561,528,19,4,-84,-48,0,0,0
1,1496755561,528,20,2,-84,-54,-2,1,0
1,1496755562,529,1,9,-83,-45,-2,0,0
1,1496755562,529,2,8,-89,-50,-2,0,0
1,1496755562,529,3,2,-88,-52,0,0,0
1,1496755562,529,4,3,-86,-52,-2,0,0
1,1496755562,529,5,1,-89,-53,-2,0,0
1,1496755562,529,6,2,-86,-53,-2,1,0
1,1496755562,529,7,4,-86,-52,-2,0,0
1,1496755562,529,8,3,-85,-56,0,0,0
1,1496755562,529,9,3,-87,-52,0,0,0
1,1496755562,529,10,4,-86,-51,0,1,0
1,1496755562,529,11,2,-85,-55,0,0,0
1,1496755562,529,12,4,-85,-54,0,0,0
1,1496755562,529,13,5,-86,-52,0,1,0
1,1496755562,529,14,0,-85,-54,0,0,0
1,1496755562,529,15,6,-87,-51,0,1,0
1,1496755562,529,16,6,-90,-48,-2,1,0
1,1496755562,529,17,6,-84,-48,-2,0,0
1,1496755562,529,18,8,-91,-52,0,1,0
1,1496755562,529,19,4,-87,-50,0,0,0
1,1496755562,529,20,2,-83,-52,0,0,0
1,1496755563,530,1,5,-86,-51,-2,0,0
1,1496755563,530,2,3,-87,-54,-2,1,0
1,1496755563,530,3,3,-86,-51,0,1,0
1,1496755563,530,4,2,-88,-56,0,0,0
1,1496755563,530,5,5,-87,-50,0,0,0
1,1496755563,530,6,3,-83,-49,0,0,0
1,1496755563,530,7,5,-87,-50,0,0,0
1,1496755563,530,8,1,-87,-53,0,0,0
1,1496755563,530,9,1,-90,-49,0,0,0
1,1496755563,530,10,2,-88,-52,0,1,0
1,1496755563,530,11,6,-87,-55,0,0,0
1,1496755563,530,12,1,-84,-49,0,0,0
1,1496755563,530,13,1,-87,-60,0,0,0
1,1496755563,530,14,2,-84,-52,0,1,0
1,1496755563,530,15,4,-88,-48,-2,1,0
1,1496755563,530,16,5,-85,-52,0,1,0
1,1496755563,530,17,1,-86,-50,0,1,0
1,1496755563,530,18,4,-85,-51,-2,1,0
1,1496755563,530,19,2,-87,-56,-2,1,0
1,1496755563,530,20,0,-84,-50,0,0,0
1,1496755565,532,1,9,-89,-53,0,3,0
1,1496755565,532,2,7,-86,-49,0,3,0
1,1496755565,532,3,11,-86,-53,0,5,0
1,1496755565,532,4,8,-85,-52,0,5,0
1,1496755565,532,5,3,-85,-55,0,3,0
1,1496755565,532,6,8,-89,-54,0,3,0
1,1496755565,532,7,7,-87,-57,0,5,0
1,1496755565,532,8,9,-83,-49,0,3,1
1,1496755565,532,9,11,-89,-49,0,5,0
1,1496755565,532,10,10,-86,-52,0,5,0
1,1496755565,532,11,7,-86,-50,0,3,0
1,1496755565,532,12,9,-87,-52,0,5,0
1,1496755565,532,13,8,-85,-51,0,3,0
1,1496755565,532,14,9,-84,-52,0,5,0
1,1496755565,532,15,9,-89,-52,0,5,1
1,1496755565,532,16,8,-85,-48,0,5,1
1,1496755565,532,17,8,-83,-52,0,5,0
1,1496755565,532,18,10,-89,-51,0,5,0
1,1496755565,532,19,11,-87,-52,0,3,0
1,1496755565,532,20,10,-90,-51,0,3,0
1,1496755568,535,1,2,-93,-50,0,0,0
1,1496755568,535,2,4,-93,-45,0,-8,1
1,1496755568,535,3,7,-81,-41,-2,0,-2
1,1496755568,535,4,2,-89,-43,-2,0,-2
1,1496755568,535,5,9,-84,-64,0,-2,0
1,1496755568,535,6,2,-92,-52,-2,1,-2
1,1496755568,535,7,3,-92,-38,0,0,-2
1,1496755568,535,8,9,-90,-57,-4,1,-2
1,1496755568,535,9,0,-84,-43,-4,0,0
1,1496755568,535,10,3,-88,-44,-2,0,0
1,1496755568,535,11,-2,-94,-52,-2,0,0
1,1496755568,535,12,2,-93,-44,0,0,0
1,1496755568,535,13,0,-85,-45,-2,0,0
1,1496755568,535,14,-1,-80,-46,-2,0,0
1,1496755568,535,15,3,-96,-47,-2,0,0
1,1496755568,535,16,1,-91,-49,-4,0,0
1,1496755568,535,17,-4,-85,-43,-6,-2,3
1,1496755568,535,18,0,-88,-47,-2,0,0
1,1496755568,535,19,-2,-90,-47,-2,0,0
1,1496755568,535,20,3,-95,-46,-2,0,-2
1,1496755569,536,1,-3,-86,-44,-2,0,0
1,1496755569,536,2,-4,-85,-46,0,0,0
1,1496755569,536,3,-1,-86,-47,0,0,0
1,1496755569,536,4,-4,-90,-50,-2,0,0
1,1496755569,536,5,-10,-90,-54,-4,0,1
1,1496755569,536,6,-2,-81,-47,-4,-4,3
1,1496755569,536,7,-1,-83,-49,0,-4,1
1,1496755569,536,8,-1,-87,-49,0,0,-2
1,1496755569,536,9,-9,-88,-52,3,0,-6
1,1496755569,536,10,-4,-90,-46,1,0,-4
1,1496755569,536,11,-6,-86,-49,0,0,-2
1,1496755569,536,12,-9,-90,-51,0,-2,0
1,1496755569,536,13,-5,-93,-46,0,-4,0
1,1496755569,536,14,-6,-90,-47,0,0,0
1,1496755569,536,15,-6,-89,-46,0,0,0
1,1496755569,536,16,-6,-88,-50,-2,0,0
1,1496755569,536,17,-6,-86,-46,0,0,-2
1,1496755569,536,18,-5,-84,-47,-2,0,0
1,1496755569,536,19,-7,-83,-42,0,0,-2
1,1496755569,536,20,-8,-88,-48,0,0,-2
1,1496755570,537,1,-5,-89,-46,0,0,-2
1,1496755570,537,2,-5,-86,-46,-2,0,-2
1,1496755570,537,3,-8,-86,-49,-2,0,0
1,1496755570,537,4,-9,-88,-46,0,-2,-2
1,1496755570,537,5,-6,-89,-46,0,0,-2
1,1496755570,537,6,-6,-88,-51,0,0,-2
1,1496755570,537,7,-7,-85,-47,0,0,0
1,1496755570,537,8,-7,-87,-49,0,0,0
1,1496755570,537,9,-3,-91,-50,0,0,-2
1,1496755570,537,10,-8,-91,-48,-2,0,0
1,1496755570,537,11,-5,-87,-45,-2,0,0
1,1496755570,537,12,1,-90,-44,0,0,-2
1,1496755570,537,13,2,-90,-43,0,0,-2
1,1496755570,537,14,2,-89,-48,0,0,-2
1,1496755570,537,15,0,-86,-44,0,0,-2
1,1496755570,537,16,-1,-88,-45,0,0,-2
1,1496755570,537,17,-5,-88,-47,0,0,-2
1,1496755570,537,18,-4,-94,-51,0,0,-2
1,1496755570,537,19,-4,-93,-50,0,0,0
1,1496755570,537,20,-2,-90,-43,0,0,0
1,1496755571,538,1,-2,-86,-42,0,0,0
1,1496755571,538,2,-3,-89,-43,0,-2,0
1,1496755571,538,3,-2,-90,-45,-2,-2,0
1,1496755571,538,4,0,-90,-40,-2,0,0
1,1496755571,538,5,0,-82,-45,-2,0,0
1,1496755571,538,6,-9,-87,-46,-4,0,0
1,1496755571,538,7,-6,-86,-52,-10,-4,9
1,1496755571,538,8,-5,-86,-40,-10,-8,13
1,1496755571,538,9,-7,-85,-42,-4,-8,11
1,1496755571,538,10,-9,-84,-45,0,-2,0
1,1496755571,538,11,-12,-83,-45,0,-2,1
1,1496755571,538,12,7,-75,-57,-6,9,-8
1,1496755571,538,13,-12,-87,-52,-2,0,0
1,1496755571,538,14,-13,-86,-53,-2,0,-4
1,1496755571,538,15,-12,-84,-46,0,0,0
1,1496755571,538,16,-12,-87,-53,-2,0,-2
1,1496755571,538,17,-13,-88,-51,-2,0,-2
1,1496755571,538,18,-11,-85,-52,0,0,-2
1,1496755571,538,19,-8,-86,-48,0,0,-4
1,1496755571,538,20,-9,-85,-52,-2,0,-2
1,1496755572,539,1,-12,-80,-53,-2,1,-4
1,1496755572,539,2,-6,-84,-47,0,0,-4
1,1496755572,539,3,-11,-89,-47,0,0,-4
1,1496755572,539,4,-10,-90,-50,-2,0,0
1,1496755572,539,5,-8,-86,-52,-2,0,0
1,1496755572,539,6,-7,-87,-54,0,0,0
1,1496755572,539,7,-8,-83,-50,0,1,-4
1,1496755572,539,8,-5,-82,-48,0,0,-2
1,1496755572,539,9,-9,-83,-52,0,0,0
1,1496755572,539,10,-10,-85,-55,0,1,0
1,1496755572,539,11,-8,-86,-56,-2,3,-2
1,1496755572,539,12,-10,-89,-48,0,0,0
1,1496755572,539,13,-9,-88,-46,0,0,0
1,1496755572,539,14,-8,-86,-46,0,0,0
1,1496755572,539,15,-6,-86,-49,0,0,0
1,1496755572,539,16,-11,-87,-48,-2,0,0
1,1496755572,539,17,-9,-85,-47,0,0,0
1,1496755572,539,18,-11,-85,-48,0,1,0
1,1496755572,539,19,-7,-86,-49,0,0,0
1,1496755572,539,20,-13,-91,-51,0,1,0
1,1496755573,540,1,-9,-84,-49,0,0,0
1,1496755573,540,2,-10,-84,-51,0,0,0
1,1496755573,540,3,-5,-85,-51,0,0,-2
1,1496755573,540,4,-10,-84,-50,0,0,-2
1,1496755573,540,5,-9,-83,-46,0,0,-2
1,1496755573,540,6,-8,-82,-43,1,0,-2
1,1496755573,540,7,-2,-85,-46,1,1,-10
1,1496755573,540,8,-8,-91,-48,0,0,-2
1,1496755573,540,9,-5,-90,-47,0,0,0
1,1496755573,540,10,-7,-93,-50,1,1,-6
1,1496755573,540,11,-5,-89,-53,0,1,-4
1,1496755573,540,12,-6,-85,-47,0,1,0
1,1496755573,540,13,4,-90,-44,-2,0,0
1,1496755573,540,14,6,-91,-40,-2,1,0
1,1496755573,540,15,-4,-99,-45,0,1,-2
1,1496755573,540,16,-11,-87,-40,0,0,0
1,1496755573,540,17,-9,-86,-45,0,0,0
1,1496755573,540,18,-4,-86,-45,0,1,0
1,1496755573,540,19,-3,-93,-47,-2,1,0
1,1496755573,540,20,0,-97,-50,-2,0,1
1,1496755575,542,1,7,-80,-45,-4,0,3
1,1496755575,542,2,-1,-93,-38,-2,0,0
1,1496755575,542,3,4,-95,-39,-4,5,0
1,1496755575,542,4,13,-111,-49,-6,7,-2
1,1496755575,542,5,0,-106,-51,-6,5,0
1,1496755575,542,6,2,-103,-53,0,0,-2
1,1496755575,542,7,5,-89,-46,-4,0,-2
1,1496755575,542,8,4,-95,-48,0,0,0
1,1496755575,542,9,11,-82,-35,-2,0,0
1,1496755575,542,10,10,-85,-35,3,1,-4
1,1496755575,542,11,11,-84,-40,0,0,-2
1,1496755575,542,12,0,-88,-40,-4,1,-2
1,1496755575,542,13,-3,-78,-49,-6,1,0
1,1496755575,542,14,-9,-84,-44,-2,0,0
1,1496755575,542,15,-6,-78,-39,-6,0,0
1,1496755575,542,16,-3,-83,-46,-6,0,1
1,1496755575,542,17,-3,-82,-48,-2,0,0
1,1496755575,542,18,0,-91,-50,-6,0,1
1,1496755575,542,19,3,-89,-49,-2,0,1
1,1496755575,542,20,1,-84,-50,-4,1,0
1,1496755576,543,1,-1,-87,-47,0,0,-4
1,1496755576,543,2,-7,-84,-46,0,0,0
1,1496755576,543,3,0,-84,-48,-6,1,0
1,1496755576,543,4,0,-92,-51,-4,3,0
1,1496755576,543,5,-3,-92,-47,-4,1,0
1,1496755576,543,6,-3,-85,-50,0,0,0
1,1496755576,543,7,-4,-84,-52,0,0,-2
1,1496755576,543,8,-4,-85,-49,0,1,0
1,1496755576,543,9,0,-80,-49,-2,1,0
1,1496755576,543,10,-19,-99,-51,-2,-6,3
1,1496755576,543,11,5,-83,-49,-2,0,0
1,1496755576,543,12,2,-85,-49,0,1,-2
1,1496755576,543,13,-6,-86,-58,-2,0,0
1,1496755576,543,14,0,-84,-47,7,-2,0
1,1496755576,543,15,-5,-87,-51,-2,1,1
1,1496755576,543,16,0,-90,-48,-2,3,0
1,1496755576,543,17,0,-89,-53,-2,0,0
1,1496755576,543,18,-4,-92,-56,-2,1,0
1,1496755576,543,19,-4,-87,-50,0,0,0
1,1496755576,543,20,-2,-91,-47,-2,3,0
1,1496755577,545,1,-7,-87,-53,-8,0,5
1,1496755577,545,2,-1,-82,-50,-6,-2,9
1,1496755577,545,3,-3,-88,-50,-2,1,0
1,1496755577,545,4,-10,-84,-55,0,1,0
1,1496755577,545,5,-12,-90,-57,-4,0,3
1,1496755577,545,6,-7,-87,-52,-4,0,3
1,1496755577,545,7,30,-61,-10,17,5,-6
1,1496755577,545,8,-2,-77,-51,-14,0,1
1,1496755577,545,9,-6,-81,-54,0,3,-2
1,1496755577,545,10,-17,-72,-51,-2,1,0
1,1496755577,545,11,-1,-89,-56,0,0,0
1,1496755577,545,12,-2,-87,-57,0,7,-6
1,1496755577,545,13,-12,-85,-56,0,1,1
1,1496755577,545,14,-7,-87,-58,0,3,0
1,1496755577,545,15,-7,-79,-55,-2,3,-2
1,1496755577,545,16,-11,-82,-50,-2,0,3
1,1496755577,545,17,8,-74,-52,-2,3,-2
1,1496755577,545,18,-19,-77,-47,0,5,0
1,1496755577,545,19,-17,-77,-36,0,0,3
1,1496755577,545,20,-27,-81,-56,1,0,1
1,1496755578,546,1,-20,-92,-37,5,0,1
1,1496755578,546,2,-15,-93,-51,-4,0,1
1,1496755578,546,3,1,-99,-58,0,3,0
1,1496755578,546,4,-16,-85,-64,-6,0,1
1,1496755578,546,5,-6,-81,-59,0,5,-4
1,1496755578,546,6,-41,-70,-57,-2,5,-2
1,1496755578,546,7,-31,-61,-48,0,1,0
1,1496755578,546,8,-1,-83,-45,3,0,1
1,1496755578,546,9,-10,-83,-51,0,1,1
1,1496755578,546,10,-15,-98,-43,0,1,0
1,1496755578,546,11,-10,-95,-46,0,3,0
1,1496755578,546,12,-20,-70,-43,-2,0,0
1,1496755578,546,13,-7,-86,-49,0,0,1
1,1496755578,546,14,-15,-80,-49,-4,1,0
1,1496755578,546,15,-15,-82,-49,0,0,1
1,1496755578,546,16,-7,-91,-52,-2,0,0
1,1496755578,546,17,-4,-76,-36,3,-6,9
1,1496755578,546,18,-17,-87,-61,9,-2,-8
1,1496755578,546,19,-15,-86,-41,-4,5,-4
1,1496755578,546,20,-10,-82,-54,1,0,3
1,1496755583,550,1,-13,-79,-43,0,1,-2
1,1496755583,550,2,-15,-83,-44,-2,1,-2
1,1496755583,550,3,-14,-83,-48,-4,0,-2
1,1496755583,550,4,-12,-81,-45,0,0,-2
1,1496755583,550,5,-11,-83,-54,-8,1,-4
1,1496755583,550,6,-18,-84,-55,-4,0,0
1,1496755583,550,7,-18,-83,-51,1,0,0
1,1496755583,550,8,-14,-74,-48,-8,0,0
1,1496755583,550,9,-14,-80,-51,0,0,0
1,1496755583,550,10,-12,-87,-57,0,0,0
1,1496755583,550,11,-14,-93,-55,-2,0,-2
1,1496755583,550,12,-21,-89,-54,-2,0,0
1,1496755583,550,13,-17,-83,-51,-2,1,0
1,1496755583,550,14,-12,-79,-55,-6,0,0
1,1496755583,550,15,-10,-80,-54,-8,1,0
1,1496755583,550,16,-9,-78,-52,0,0,0
1,1496755583,550,17,-12,-74,-50,-4,0,0
1,1496755583,550,18,-15,-81,-65,-8,1,0
1,1496755583,550,19,-12,-77,-48,-2,1,0
1,1496755583,550,20,-13,-78,-49,-2,0,0
1,1496755584,551,1,-17,-86,-51,0,0,0
1,1496755584,551,2,-18,-84,-55,0,0,0
1,1496755584,551,3,-15,-83,-55,-2,0,0
1,1496755584,551,4,-17,-80,-52,-2,0,0
1,1496755584,551,5,-16,-74,-60,-2,1,0
1,1496755584,551,6,-21,-90,-59,-2,1,0
1,1496755584,551,7,-12,-94,-59,1,-2,0
1,1496755584,551,8,-21,-81,-60,-4,1,0
1,1496755584,551,9,-24,-92,-65,-2,1,0
1,1496755584,551,10,-16,-86,-59,0,1,0
1,1496755584,551,11,-12,-75,-52,-4,3,0
1,1496755584,551,12,-10,-69,-56,-4,3,0
1,1496755584,551,13,-80,-79,114,-112,77,-38
1,1496755584,551,14,-5,-79,-53,-4,5,-6
1,1496755584,551,15,-27,-83,-61,-2,0,-6
1,1496755584,551,16,-6,-74,-63,-6,5,0
1,1496755584,551,17,32,-52,-19,0,34,5
1,1496755584,551,18,-55,-109,18,60,24,15
1,1496755584,551,19,-6,-94,-47,-8,-16,13
1,1496755584,551,20,-2,-69,-59,-8,5,0
1,1496755585,552,1,-13,-86,-68,0,3,1
1,1496755585,552,2,-10,-89,-66,0,1,7
1,1496755585,552,3,-8,-70,-60,0,3,1
1,1496755585,552,4,-38,-32,56,-44,94,-25
1,1496755585,552,5,-14,-88,-86,-10,20,0
1,1496755585,552,6,-17,-84,-63,-10,15,7
1,1496755585,552,7,-6,-78,-63,-8,0,7
1,1496755585,552,8,-1,-79,-68,1,3,0
1,1496755585,552,9,-5,-88,-66,-2,9,7
1,1496755585,552,10,3,-82,-62,0,7,5
1,1496755585,552,11,-3,-65,-70,-6,1,11
1,1496755585,552,12,13,-59,-57,-10,5,11
1,1496755585,552,13,0,-74,-72,0,9,1
1,1496755585,552,14,-7,-75,-70,0,9,11
1,1496755585,552,15,-22,-68,-115,5,11,-12
1,1496755585,552,16,-3,-88,-45,7,5,5
1,1496755585,552,17,2,-76,-56,0,11,7
1,1496755585,552,18,0,-75,-63,0,9,5
1,1496755585,552,19,0,-78,-69,1,11,7
1,1496755585,552,20,0,-77,-66,3,9,1
1,1496755586,553,1,-6,-78,-64,15,17,-4
1,1496755586,553,2,-1,-85,-61,0,11,7
1,1496755586,553,3,1,-77,-62,0,13,5
1,1496755586,553,4,-2,-83,-63,1,9,7
1,1496755586,553,5,0,-79,-55,-4,17,7
1,1496755586,553,6,1,-81,-76,-4,15,7
1,1496755586,553,7,2,-78,-66,0,15,5
1,1496755586,553,8,0,-81,-68,0,13,7
1,1496755586,553,9,0,-77,-68,0,13,7
1,1496755586,553,10,2,-80,-71,0,15,5
1,1496755586,553,11,3,-75,-64,0,17,7
1,1496755586,553,12,0,-71,-67,0,15,7
1,1496755586,553,13,0,-84,-64,0,15,7
1,1496755586,553,14,-3,-75,-71,-6,18,5
1,1496755586,553,15,-6,-80,-71,0,17,5
1,1496755586,553,16,3,-85,-61,1,15,7
1,1496755586,553,17,4,-71,-63,0,15,9
1,1496755586,553,18,2,-67,-61,3,17,7
1,1496755586,553,19,5,-77,-72,1,18,5
1,1496755586,553,20,0,-80,-68,1,17,3
1,1496755587,554,1,0,-78,-62,0,15,9
1,1496755587,554,2,3,-81,-66,0,18,7
1,1496755587,554,3,0,-77,-60,0,17,7
1,1496755587,554,4,5,-78,-68,0,17,9
1,1496755587,554,5,6,-85,-62,1,13,7
1,1496755587,554,6,-5,-76,-64,1,20,3
1,1496755587,554,7,0,-82,-60,0,20,7
1,1496755587,554,8,3,-77,-61,0,18,7
1,1496755587,554,9,-1,-76,-60,0,17,7
1,1496755587,554,10,3,-78,-69,-2,20,7
1,1496755587,554,11,5,-72,-63,-2,18,7
1,1496755587,554,12,6,-79,-59,0,15,7
1,1496755587,554,13,6,-94,-60,0,18,7
1,1496755587,554,14,4,-87,-70,-2,17,5
1,1496755587,554,15,5,-91,-65,-4,18,9
1,1496755587,554,16,2,-99,-60,0,17,3
1,1496755587,554,17,0,-93,-69,0,17,1
1,1496755587,554,18,5,-93,-61,1,15,3
1,1496755587,554,19,2,-85,-63,0,20,1
1,1496755587,554,20,5,-96,-65,0,18,1
1,1496755588,555,1,2,-84,-58,-2,20,3
1,1496755588,555,2,7,-73,-59,-2,18,3
1,1496755588,555,3,17,-83,-64,0,18,3
1,1496755588,555,4,8,-74,-61,-2,20,1
1,1496755588,555,5,8,-87,-58,-2,20,3
1,1496755588,555,6,9,-76,-53,0,20,3
1,1496755588,555,7,0,-82,-66,0,17,3
1,1496755588,555,8,13,-72,-54,0,18,5
1,1496755588,555,9,14,-76,-58,-2,17,7
1,1496755588,555,10,9,-79,-52,-2,15,9
1,1496755588,555,11,14,-84,-56,0,17,7
1,1496755588,555,12,7,-88,-59,0,11,9
1,1496755588,555,13,13,-88,-55,-2,13,7
1,1496755588,555,14,17,-91,-52,0,15,5
1,1496755588,555,15,13,-85,-51,-2,15,5
1,1496755588,555,16,15,-97,-54,0,13,3
1,1496755588,555,17,18,-84,-45,-4,15,3
1,1496755588,555,18,19,-81,-40,-2,13,3
1,1496755588,555,19,15,-73,-37,-2,11,3
1,1496755588,555,20,14,-86,-45,3,7,1
1,1496755589,556,1,16,-97,-54,0,11,0
1,1496755589,556,2,10,-103,-51,-2,11,1
1,1496755589,556,3,17,-95,-40,0,5,1
1,1496755589,556,4,12,-103,-49,-4,9,0
1,1496755589,556,5,17,-99,-41,0,5,0
1,1496755589,556,6,16,-84,-38,-2,5,1
1,1496755589,556,7,17,-75,-36,0,3,1
1,1496755589,556,8,13,-89,-44,3,0,1
1,1496755589,556,9,6,-87,-56,-8,13,0
1,1496755589,556,10,15,-86,-56,-4,9,0
1,1496755589,556,11,22,-100,-40,1,3,0
1,1496755589,556,12,17,-88,-36,0,1,0
1,1496755589,556,13,10,-96,-48,-8,9,0
1,1496755589,556,14,11,-94,-51,-8,9,0
1,1496755589,556,15,16,-92,-49,1,1,0
1,1496755589,556,16,15,-93,-34,0,7,0
1,1496755589,556,17,12,-94,-43,-4,5,0
1,1496755589,556,18,19,-100,-53,1,3,-4
1,1496755589,556,19,8,-94,-46,1,0,-2
1,1496755589,556,20,8,-89,-43,-4,5,0
1,1496755590,557,1,16,-89,-40,-2,3,0
1,1496755590,557,2,14,-96,-39,0,3,0
1,1496755590,557,3,15,-93,-46,-2,3,0
1,1496755590,557,4,10,-88,-37,0,1,0
1,1496755590,557,5,11,-89,-40,0,1,0
1,1496755590,557,6,16,-86,-43,0,0,0
1,1496755590,557,7,13,-92,-44,-2,3,0
1,1496755590,557,8,16,-89,-48,-2,1,0
1,1496755590,557,9,17,-91,-42,0,1,0
1,1496755590,557,10,14,-93,-49,0,1,0
1,1496755590,557,11,12,-85,-40,-2,3,0
1,1496755590,557,12,19,-85,-45,-2,1,0
1,1496755590,557,13,12,-91,-47,-2,1,0
1,1496755590,557,14,17,-91,-46,0,0,0
1,1496755590,557,15,19,-93,-43,0,0,0
1,1496755590,557,16,10,-86,-46,0,-2,0
1,1496755590,557,17,9,-97,-37,0,-4,0
1,1496755590,557,18,17,-95,-47,0,0,-2
1,1496755590,557,19,9,-95,-42,0,1,0
1,1496755590,557,20,6,-92,-40,0,3,0
1,1496755592,559,1,14,-83,-36,0,1,0
1,1496755592,559,2,11,-88,-40,0,1,0
1,1496755592,559,3,13,-88,-39,0,3,0
1,1496755592,559,4,13,-93,-43,0,0,1
1,1496755592,559,5,13,-91,-41,0,-2,0
1,1496755592,559,6,15,-99,-43,-2,1,0
1,1496755592,559,7,15,-89,-33,-2,3,0
1,1496755592,559,8,9,-98,-43,-2,1,-2
1,1496755592,559,9,13,-100,-48,-2,0,-4
1,1496755592,559,10,15,-88,-36,0,1,-2
1,1496755592,559,11,9,-85,-31,-8,3,-2
1,1496755592,559,12,14,-79,-40,-2,0,1
1,1496755592,559,13,18,-101,-45,-6,0,0
1,1496755592,559,14,13,-85,-36,-6,0,0
1,1496755592,559,15,14,-89,-40,0,1,0
1,1496755592,559,16,14,-98,-45,0,0,-2
1,1496755592,559,17,4,-84,-43,-6,0,1
1,1496755592,559,18,5,-82,-37,-6,3,0
1,1496755592,559,19,11,-93,-50,-2,3,-2
1,1496755592,559,20,10,-92,-45,-4,0,1
1,1496755592,560,1,3,-66,-41,0,0,0
1,1496755592,560,2,11,-108,-55,1,0,-2
1,1496755592,560,3,7,-107,-54,-8,3,-4
1,1496755592,560,4,14,-101,-48,0,0,0
1,1496755592,560,5,5,-95,-52,-4,0,0
1,1496755592,560,6,7,-88,-45,0,0,0
1,1496755592,560,7,6,-89,-44,0,0,-2
1,1496755592,560,8,12,-83,-50,0,0,0
1,1496755592,560,9,6,-86,-41,-2,0,0
1,1496755592,560,10,8,-85,-46,0,1,0
1,1496755592,560,11,8,-81,-54,-2,0,1
1,1496755592,560,12,5,-85,-46,-2,1,0
1,1496755592,560,13,7,-90,-44,-4,3,0
1,1496755592,560,14,4,-99,-41,-2,1,0
1,1496755592,560,15,9,-86,-41,-2,1,0
1,1496755592,560,16,7,-90,-43,0,0,0
1,1496755592,560,17,8,-88,-49,0,0,0
1,1496755592,560,18,5,-77,-46,-2,1,0
1,1496755592,560,19,3,-88,-41,-2,1,0
1,1496755592,560,20,3,-82,-42,-2,1,0
1,1496755593,561,1,9,-72,-41,-2,0,0
1,1496755593,561,2,12,-81,-52,0,0,1
1,1496755593,561,3,22,-96,-51,0,1,0
1,1496755593,561,4,-1,-101,-59,0,-4,0
1,1496755593,561,5,6,-95,-41,0,0,1
1,1496755593,561,6,7,-91,-44,0,0,0
1,1496755593,561,7,8,-79,-48,0,0,1
1,1496755593,561,8,5,-85,-50,0,0,0
1,1496755593,561,9,19,-92,-39,5,0,-2
1,1496755593,561,10,7,-88,-44,0,0,0
1,1496755593,561,11,4,-89,-39,0,0,0
1,1496755593,561,12,0,-91,-39,-2,0,0
1,1496755593,561,13,8,-84,-37,-2,0,0
1,1496755593,561,14,8,-86,-49,0,0,1
1,1496755593,561,15,3,-88,-43,0,0,0
1,1496755593,561,16,6,-100,-47,-2,1,-2
1,1496755593,561,17,7,-94,-47,0,0,0
1,1496755593,561,18,9,-96,-47,0,0,0
1,1496755593,561,19,7,-90,-49,0,0,0
1,1496755593,561,20,7,-91,-49,0,0,-2
1,1496755594,562,1,-64,-91,-69,9,7,-12
1,1496755594,562,2,9,-82,-52,9,15,-12
1,1496755594,562,3,8,-94,-47,3,11,-14
1,1496755594,562,4,7,-94,-45,0,7,-6
1,1496755594,562,5,9,-95,-48,-2,0,0
1,1496755594,562,6,7,-108,-42,-4,-6,5
1,1496755594,562,7,6,-88,-28,-19,15,22
1,1496755594,562,8,34,-82,-58,-4,-8,15
1,1496755594,562,9,9,-85,-42,-8,0,0
1,1496755594,562,10,5,-78,-42,-2,0,0
1,1496755594,562,11,10,-98,-42,0,0,0
1,1496755594,562,12,8,-96,-47,-4,0,1
1,1496755594,562,13,6,-92,-40,0,0,1
1,1496755594,562,14,8,-91,-43,3,0,-2
1,1496755594,562,15,8,-91,-43,7,-2,0
1,1496755594,562,16,3,-86,-40,5,-2,0
1,1496755594,562,17,0,-92,-40,0,1,0
1,1496755594,562,18,7,-89,-45,-2,1,0
1,1496755594,562,19,9,-95,-40,0,0,0
1,1496755594,562,20,6,-89,-36,-2,0,0
1,1496755596,564,1,0,-87,-43,-6,1,-2
1,1496755596,564,2,0,-88,-42,-4,1,0
1,1496755596,564,3,0,-97,-44,-2,1,-2
1,1496755596,564,4,0,-95,-48,0,0,0
1,1496755596,564,5,-1,-95,-41,0,0,0
1,1496755596,564,6,0,-89,-40,0,0,-2
1,1496755596,564,7,-1,-95,-38,0,0,-2
1,1496755596,564,8,3,-90,-41,0,0,-2
1,1496755596,564,9,0,-100,-43,-2,0,-2
1,1496755596,564,10,-5,-95,-42,0,-2,0
1,1496755596,564,11,-5,-87,-35,-2,0,0
1,1496755596,564,12,0,-97,-42,0,0,0
1,1496755596,564,13,-3,-99,-42,0,0,0
1,1496755596,564,14,0,-94,-44,0,0,0
1,1496755596,564,15,-2,-95,-46,0,0,-2
1,1496755596,564,16,-1,-87,-40,-2,0,-2
1,1496755596,564,17,1,-89,-37,0,0,-4
1,1496755596,564,18,1,-89,-32,3,-4,-4
1,1496755596,564,19,-1,-99,-29,0,0,-2
1,1496755596,564,20,3,-96,-43,0,0,0
1,1496755597,565,1,0,-108,-40,-2,0,0
1,1496755597,565,2,5,-90,-39,-2,-6,0
1,1496755597,565,3,0,-96,-36,-2,0,0
1,1496755597,565,4,2,-102,-43,-2,0,-2
1,1496755597,565,5,-2,-95,-39,-2,0,0
1,1496755597,565,6,5,-95,-34,-2,0,0
1,1496755597,565,7,4,-87,-38,-2,-2,-2
1,1496755597,565,8,0,-99,-39,0,0,-4
1,1496755597,565,9,-2,-90,-46,-2,0,-2
1,1496755597,565,10,-2,-97,-43,-2,1,-2
1,1496755597,565,11,-5,-93,-36,-4,-2,-2
1,1496755597,565,12,-1,-80,-33,-2,-4,0
1,1496755597,565,13,15,-91,-23,0,1,-2
1,1496755597,565,14,2,-99,-47,0,0,-2
1,1496755597,565,15,4,-94,-43,0,-2,0
1,1496755597,565,16,5,-92,-37,-2,0,-2
1,1496755597,565,17,6,-87,-43,-2,0,-2
1,1496755597,565,18,9,-94,-33,-2,0,0
1,1496755597,565,19,10,-95,-45,0,0,-2
1,1496755597,565,20,4,-86,-37,-2,0,-2
1,1496755598,566,1,8,-88,-38,-2,0,0
1,1496755598,566,2,7,-92,-33,-2,0,0
1,1496755598,566,3,0,-86,-37,-2,0,-2
1,1496755598,566,4,0,-90,-39,-4,0,-2
1,1496755598,566,5,2,-90,-40,-2,0,0
1,1496755598,566,6,11,-96,-36,-2,0,-2
1,1496755598,566,7,2,-86,-38,-2,0,0
1,1496755598,566,8,2,-90,-45,-2,0,-2
1,1496755598,566,9,3,-93,-43,0,0,-2
1,1496755598,566,10,10,-92,-45,0,0,-4
1,1496755598,566,11,4,-89,-46,-2,-2,0
1,1496755598,566,12,7,-92,-34,-2,0,0
1,1496755598,566,13,0,-93,-38,-2,0,0
1,1496755598,566,14,-1,-83,-33,-2,0,0
1,1496755598,566,15,7,-94,-44,0,0,0
1,1496755598,566,16,6,-98,-39,0,0,-2
1,1496755598,566,17,11,-88,-36,0,-6,0
1,1496755598,566,18,9,-93,-36,-4,1,0
1,1496755598,566,19,12,-86,-37,-6,0,-2
1,1496755598,566,20,6,-83,-37,-4,0,0
1,1496755599,567,1,4,-95,-41,0,-2,0
1,1496755599,567,2,7,-100,-42,0,-2,-2
1,1496755599,567,3,-3,-95,-37,0,-2,0
1,1496755599,567,4,2,-104,-38,-4,0,-2
1,1496755599,567,5,-3,-97,-37,0,0,-2
1,1496755599,567,6,12,-79,-38,-4,0,-2
1,1496755599,567,7,4,-92,-46,-12,0,1
1,1496755599,567,8,-2,-104,-46,-12,-12,15
1,1496755599,567,9,-18,-95,-35,3,-10,24
1,1496755599,567,10,-7,-89,-52,-16,7,-16
1,1496755599,567,11,-12,-97,-55,3,7,-4
1,1496755599,567,12,-12,-88,-50,-4,-2,0
1,1496755599,567,13,-14,-80,-44,-2,0,-6
1,1496755599,567,14,-13,-89,-48,5,0,0
1,1496755599,567,15,-19,-93,-52,5,1,0
1,1496755599,567,16,-9,-84,-52,-8,-2,-2
1,1496755599,567,17,-10,-98,-45,5,0,0
1,1496755599,567,18,-3,-97,-45,1,0,0
1,1496755599,567,19,-5,-88,-45,0,0,0
1,1496755599,567,20,-12,-83,-50,-2,-2,0
1,1496755600,567,1,-9,-87,-46,1,0,-4
1,1496755600,567,2,-11,-89,-49,-2,1,-6
1,1496755600,567,3,-11,-89,-49,0,3,-6
1,1496755600,567,4,-9,-95,-50,0,3,-6
1,1496755600,567,5,-16,-95,-55,0,0,-2
1,1496755600,567,6,-12,-87,-46,-2,0,-2
1,1496755600,567,7,-4,-83,-44,0,0,-4
1,1496755600,567,8,-8,-86,-50,1,0,-6
1,1496755600,567,9,-11,-80,-59,0,0,-2
1,1496755600,567,10,-5,-83,-52,-4,0,-4
1,1496755600,567,11,-5,-88,-54,-4,0,-2
1,1496755600,567,12,-10,-85,-44,0,-2,-2
1,1496755600,567,13,-4,-82,-46,0,0,-2
1,1496755600,567,14,-4,-85,-47,3,-4,-4
1,1496755600,567,15,28,-70,-41,0,17,-14
1,1496755600,567,16,-9,-84,-52,-8,-2,-2
1,1496755600,567,17,-10,-98,-45,5,0,0
1,1496755600,567,18,-3,-97,-45,1,0,0
1,1496755600,567,19,-5,-88,-45,0,0,0
1,1496755600,567,20,-12,-83,-50,-2,-2,0
1,1496755600,568,1,-9,-87,-46,1,0,-4
1,1496755600,568,2,-11,-89,-49,-2,1,-6
1,1496755600,568,3,-11,-89,-49,0,3,-6
1,1496755600,568,4,-9,-95,-50,0,3,-6
1,1496755600,568,5,-16,-95,-55,0,0,-2
1,1496755600,568,6,-12,-87,-46,-2,0,-2
1,1496755600,568,7,-4,-83,-44,0,0,-4
1,1496755600,568,8,-8,-86,-50,1,0,-6
1,1496755600,568,9,-11,-80,-59,0,0,-2
1,1496755600,568,10,-5,-83,-52,-4,0,-4
1,1496755600,568,11,-5,-88,-54,-4,0,-2
1,1496755600,568,12,-10,-85,-44,0,-2,-2
1,1496755600,568,13,-4,-82,-46,0,0,-2
1,1496755600,568,14,-4,-85,-47,3,-4,-4
1,1496755600,568,15,28,-70,-41,0,17,-14
1,1496755600,568,16,-13,-86,-54,7,7,-12
1,1496755600,568,17,-5,-91,-50,1,1,-4
1,1496755600,568,18,1,-97,-44,1,1,-6
1,1496755600,568,19,0,-88,-46,0,0,-4
1,1496755600,568,20,7,-86,-46,-2,0,0
1,1496755603,571,1,4,-83,-42,-14,-2,-4
1,1496755603,571,2,6,-99,-49,0,5,0
1,1496755603,571,3,4,-89,-56,-2,9,-6
1,1496755603,571,4,-22,-89,-71,-4,-8,5
1,1496755603,571,5,-40,-93,-13,-18,22,-8
1,1496755603,571,6,2,-99,-33,7,-6,0
1,1496755603,571,7,-4,-81,-24,0,-6,0
1,1496755603,571,8,6,-90,-30,3,-2,0
1,1496755603,571,9,6,-106,-43,11,-8,-10
1,1496755603,571,10,6,-92,-33,0,0,-4
1,1496755603,571,11,9,-87,-42,-4,3,-2
1,1496755603,571,12,3,-80,-41,-2,1,0
1,1496755603,571,13,8,-89,-42,-2,0,0
1,1496755603,571,14,5,-85,-39,0,-2,0
1,1496755603,571,15,8,-86,-46,-4,0,0
1,1496755603,571,16,9,-88,-39,0,0,0
1,1496755603,571,17,7,-93,-47,-2,3,0
1,1496755603,571,18,9,-89,-50,0,0,0
1,1496755603,571,19,8,-88,-38,-4,0,0
1,1496755603,571,20,7,-87,-40,-4,3,0
1,1496755605,573,1,-1,-92,-59,-4,1,-2
1,1496755605,573,2,1,-84,-46,-4,0,-2
1,1496755605,573,3,9,-82,-46,0,0,0
1,1496755605,573,4,7,-83,-45,0,0,-2
1,1496755605,573,5,9,-91,-46,0,0,0
1,1496755605,573,6,6,-96,-47,-2,0,0
1,1496755605,573,7,3,-93,-41,-8,1,0
1,1496755605,573,8,8,-85,-44,0,0,0
1,1496755605,573,9,12,-89,-42,0,1,-2
1,1496755605,573,10,5,-80,-40,0,0,0
1,1496755605,573,11,8,-82,-44,1,0,0
1,1496755605,573,12,9,-89,-43,0,0,0
1,1496755605,573,13,6,-88,-44,-2,1,0
1,1496755605,573,14,8,-85,-45,-2,0,0
1,1496755605,573,15,4,-92,-46,-2,0,0
1,1496755605,573,16,2,-89,-41,-2,1,0
1,1496755605,573,17,4,-86,-42,-2,1,0
1,1496755605,573,18,8,-84,-42,0,0,0
1,1496755605,573,19,6,-88,-40,1,0,0
1,1496755605,573,20,1,-88,-42,0,1,0
1,1496755606,574,1,2,-86,-41,-4,3,0
1,1496755606,574,2,6,-87,-43,-2,0,0
1,1496755606,574,3,7,-101,-45,-2,0,0
1,1496755606,574,4,4,-84,-51,-6,0,0
1,1496755606,574,5,8,-92,-40,0,0,0
1,1496755606,574,6,4,-89,-42,0,0,0
1,1496755606,574,7,-2,-81,-39,-4,0,1
1,1496755606,574,8,13,-88,-41,0,-2,1
1,1496755606,574,9,0,-100,-48,-8,0,0
1,1496755606,574,10,0,-101,-41,-4,0,0
1,1496755606,574,11,-2,-94,-45,-2,0,-2
1,1496755606,574,12,4,-94,-49,0,0,0
1,1496755606,574,13,-7,-74,-56,-8,0,1
1,1496755606,574,14,1,-81,-41,-6,-4,1
1,1496755606,574,15,0,-86,-45,-4,-2,1
1,1496755606,574,16,-5,-79,-42,-2,1,-2
1,1496755606,574,17,-4,-88,-58,-2,0,0
1,1496755606,574,18,-6,-86,-52,-6,1,0
1,1496755606,574,19,0,-91,-52,-2,3,0
1,1496755606,574,20,-7,-87,-52,-6,1,-2
1,1496755607,575,1,-12,-85,-47,-2,1,0
1,1496755607,575,2,-7,-100,-47,0,0,-2
1,1496755607,575,3,-6,-84,-44,0,0,-2
1,1496755607,575,4,-5,-87,-47,0,0,0
1,1496755607,575,5,-2,-83,-50,0,0,0
1,1496755607,575,6,-8,-86,-52,-2,1,0
1,1496755607,575,7,-4,-89,-47,0,0,3
1,1496755607,575,8,-4,-79,-37,-2,0,1
1,1496755607,575,9,1,-81,-41,-4,-2,1
1,1496755607,575,10,-5,-87,-49,-2,1,0
1,1496755607,575,11,-2,-94,-43,0,0,0
1,1496755607,575,12,-6,-94,-42,0,1,0
1,1496755607,575,13,-1,-91,-50,0,0,-2
1,1496755607,575,14,-8,-96,-49,0,1,-4
1,1496755607,575,15,-8,-86,-48,-4,1,0
1,1496755607,575,16,-10,-87,-37,1,0,-2
1,1496755607,575,17,-9,-79,-43,1,0,0
1,1496755607,575,18,-5,-90,-52,-2,0,0
1,1496755607,575,19,-5,-87,-49,-2,1,0
1,1496755607,575,20,-8,-88,-46,0,3,-4
1,1496755608,577,1,0,-95,-48,0,0,-2
1,1496755608,577,2,0,-89,-45,0,0,0
1,1496755608,577,3,0,-88,-47,-2,0,0
1,1496755608,577,4,-2,-86,-44,0,1,0
1,1496755608,577,5,-2,-91,-45,-2,0,0
1,1496755608,577,6,-5,-87,-51,-6,1,0
1,1496755608,577,7,-1,-87,-41,-2,1,-2
1,1496755608,577,8,-4,-86,-41,-4,0,0
1,1496755608,577,9,-4,-92,-49,-2,1,0
1,1496755608,577,10,-2,-90,-52,-2,0,0
1,1496755608,577,11,-7,-89,-48,-4,1,0
1,1496755608,577,12,0,-80,-44,-6,3,0
1,1496755608,577,13,-2,-85,-49,-2,0,0
1,1496755608,577,14,-2,-85,-53,-4,1,0
1,1496755608,577,15,-1,-86,-51,-2,0,0
1,1496755608,577,16,0,-86,-49,0,0,0
1,1496755608,577,17,1,-91,-47,0,0,0
1,1496755608,577,18,3,-90,-47,0,1,0
1,1496755608,577,19,0,-87,-53,0,0,0
1,1496755608,577,20,1,-84,-50,0,0,0
1,1496755609,578,1,2,-86,-50,0,1,0
1,1496755609,578,2,-2,-91,-50,-2,0,0
1,1496755609,578,3,-4,-91,-51,-6,1,0
1,1496755609,578,4,-3,-83,-48,-4,1,0
1,1496755609,578,5,-1,-87,-52,-10,0,0
1,1496755609,578,6,0,-89,-48,-4,1,0
1,1496755609,578,7,-2,-83,-42,0,0,0
1,1496755609,578,8,-1,-90,-42,0,1,0
1,1496755609,578,9,0,-89,-44,-2,1,0
1,1496755609,578,10,1,-86,-46,-2,0,1
1,1496755609,578,11,-6,-89,-52,-2,0,0
1,1496755609,578,12,-2,-86,-43,-2,1,0
1,1496755609,578,13,0,-87,-46,-6,0,1
1,1496755609,578,14,-8,-95,-48,-4,-2,1
1,1496755609,578,15,-4,-80,-45,0,-2,1
1,1496755609,578,16,-2,-86,-47,-2,1,1
1,1496755609,578,17,-2,-94,-52,-6,0,0
1,1496755609,578,18,-15,-91,-51,-4,-2,7
1,1496755609,578,19,-7,-81,-48,-8,-6,13
1,1496755609,578,20,-7,-81,-50,-6,0,5
1,1496755614,582,1,84,-51,8,9,9,-6
1,1496755614,582,2,-3,-70,-62,-31,3,-10
1,1496755614,582,3,-13,-86,-56,-2,0,1
1,1496755614,582,4,-6,-82,-52,-4,1,0
1,1496755614,582,5,-16,-88,-47,0,0,7
1,1496755614,582,6,-15,-83,-50,0,0,0
1,1496755614,582,7,-24,-87,-58,-4,0,1
1,1496755614,582,8,-3,-81,-40,3,3,-4
1,1496755614,582,9,-12,-79,-48,1,1,0
1,1496755614,582,10,0,-86,-46,1,1,-4
1,1496755614,582,11,-13,-84,-48,0,1,0
1,1496755614,582,12,-12,-88,-46,0,0,0
1,1496755614,582,13,-7,-89,-48,0,1,0
1,1496755614,582,14,-3,-86,-48,0,1,0
1,1496755614,582,15,-13,-77,-52,-2,0,0
1,1496755614,582,16,-14,-83,-59,-2,0,0
1,1496755614,582,17,-19,-78,-51,-2,1,-2
1,1496755614,582,18,-7,-89,-46,0,0,0
1,1496755614,582,19,-5,-90,-49,-4,1,-2
1,1496755614,582,20,-5,-92,-46,0,0,0
1,1496755615,583,1,-18,-82,-48,0,0,0
1,1496755615,583,2,-12,-83,-49,0,0,0
1,1496755615,583,3,-17,-80,-48,0,0,0
1,1496755615,583,4,-14,-82,-54,-2,1,-2
1,1496755615,583,5,-13,-87,-54,0,0,-2
1,1496755615,583,6,-8,-89,-52,0,0,0
1,1496755615,583,7,-13,-84,-54,0,1,-4
1,1496755615,583,8,-29,-90,-56,11,-6,0
1,1496755615,583,9,7,-92,27,34,-12,-4
1,1496755615,583,10,-3,-76,-36,5,-8,5
1,1496755615,583,11,-32,-89,-54,0,-4,7
1,1496755615,583,12,-15,-89,-53,5,-10,3
1,1496755615,583,13,-16,-94,-47,7,-6,-4
1,1496755615,583,14,-17,-85,-46,7,-8,0
1,1496755615,583,15,-18,-83,-49,-10,-2,7
1,1496755615,583,16,-23,-82,-42,1,-4,0
1,1496755615,583,17,-16,-81,-45,-4,0,0
1,1496755615,583,18,-18,-89,-50,0,-4,1
1,1496755615,583,19,-10,-87,-34,9,-6,-6
1,1496755615,583,20,-25,-91,-35,0,-2,0
1,1496755616,584,1,-25,-85,-41,0,0,0
1,1496755616,584,2,-26,-86,-38,1,-4,0
1,1496755616,584,3,-27,-86,-45,1,-6,1
1,1496755616,584,4,-28,-88,-42,3,-10,1
1,1496755616,584,5,-32,-88,-40,1,-8,0
1,1496755616,584,6,-33,-91,-38,-2,0,0
1,1496755616,584,7,-27,-85,-38,0,0,0
1,1496755616,584,8,-33,-88,-36,1,-4,0
1,1496755616,584,9,-36,-93,-41,-4,0,0
1,1496755616,584,10,-30,-79,-38,0,-4,0
1,1496755616,584,11,-33,-91,-41,0,0,0
1,1496755616,584,12,-35,-93,-40,0,-2,0
1,1496755616,584,13,-37,-87,-35,-2,0,0
1,1496755616,584,14,-33,-88,-34,0,0,0
1,1496755616,584,15,-31,-84,-38,0,0,-2
1,1496755616,584,16,-30,-89,-39,0,0,0
1,1496755616,584,17,-32,-85,-40,0,0,0
1,1496755616,584,18,-33,-93,-38,0,0,0
1,1496755616,584,19,-32,-92,-40,-2,0,0
1,1496755616,584,20,-35,-85,-32,0,0,0
1,1496755617,585,1,-29,-82,-31,-21,13,-4
1,1496755617,585,2,-37,-95,-17,-29,18,-6
1,1496755617,585,3,-25,-91,-36,7,-4,1
1,1496755617,585,4,-25,-88,-44,1,-2,0
1,1496755617,585,5,-22,-84,-26,9,-4,0
1,1496755617,585,6,-35,-93,-46,-18,9,-4
1,1496755617,585,7,-28,-87,-46,-4,1,0
1,1496755617,585,8,-24,-87,-41,1,-12,0
1,1496755617,585,9,-21,-88,-42,5,-2,0
1,1496755617,585,10,-25,-87,-37,3,-8,0
1,1496755617,585,11,-30,-92,-47,3,-6,0
1,1496755617,585,12,-28,-84,-44,7,-8,1
1,1496755617,585,13,-24,-89,-28,11,-16,0
1,1496755617,585,14,-31,-86,-35,0,-2,0
1,1496755617,585,15,-30,-91,-44,-8,5,0
1,1496755617,585,16,-23,-89,-43,-6,3,-2
1,1496755617,585,17,-27,-79,-35,0,0,0
1,1496755617,585,18,-30,-81,-42,0,-2,0
1,1496755617,585,19,-25,-85,-44,0,1,0
1,1496755617,585,20,-27,-83,-36,0,0,0
1,1496755618,586,1,-28,-85,-41,0,0,0
1,1496755618,586,2,-31,-95,-40,-2,0,0
1,1496755618,586,3,-30,-85,-40,0,-2,0
1,1496755618,586,4,-38,-85,-30,-6,1,0
1,1496755618,586,5,-39,-85,-40,-4,1,0
1,1496755618,586,6,-32,-80,-31,-4,3,0
1,1496755618,586,7,-34,-81,-29,0,0,0
1,1496755618,586,8,-32,-88,-38,-4,1,0
1,1496755618,586,9,-32,-93,-43,0,0,0
1,1496755618,586,10,-37,-95,-39,0,0,0
1,1496755618,586,11,-34,-95,-37,1,-2,0
1,1496755618,586,12,-36,-92,-34,0,0,0
1,1496755618,586,13,-31,-89,-31,1,0,-2
1,1496755618,586,14,-26,-81,-29,-8,7,-4
1,1496755618,586,15,-38,-87,-34,-6,3,0
1,1496755618,586,16,-39,-86,-37,-6,1,0
1,1496755618,586,17,-33,-87,-35,-16,13,0
1,1496755618,586,18,-32,-84,-41,0,0,0
1,1496755618,586,19,-25,-87,-25,0,0,0
1,1496755618,586,20,-32,-92,-39,-8,5,0
1,1496755619,587,1,-26,-93,-38,-8,5,-2
1,1496755619,587,2,-27,-87,-43,-6,3,0
1,1496755619,587,3,-29,-89,-35,-8,5,0
1,1496755619,587,4,-23,-85,-43,-12,11,-4
1,1496755619,587,5,-27,-83,-43,0,0,0
1,1496755619,587,6,-33,-84,-45,1,-4,0
1,1496755619,587,7,-26,-81,-33,5,-4,0
1,1496755619,587,8,-28,-86,-40,1,-2,0
1,1496755619,587,9,-29,-96,-40,3,-2,0
1,1496755619,587,10,-22,-86,-37,0,0,0
1,1496755619,587,11,-25,-93,-38,0,0,0
1,1496755619,587,12,-22,-93,-38,0,0,0
1,1496755619,587,13,-28,-89,-38,0,0,0
1,1496755619,587,14,-26,-77,-38,-2,1,0
1,1496755619,587,15,-29,-83,-38,0,0,0
1,1496755619,587,16,-37,-82,-35,0,-2,0
1,1496755619,587,17,-31,-85,-36,0,0,0
1,1496755619,587,18,-32,-85,-45,-4,1,0
1,1496755619,587,19,-33,-89,-39,1,0,0
1,1496755619,587,20,-36,-94,-39,0,0,0
1,1496755620,588,1,-36,-90,-39,1,-2,0
1,1496755620,588,2,-23,-97,-31,0,0,0
1,1496755620,588,3,-35,-88,-48,-14,9,-2
1,1496755620,588,4,-29,-84,-48,0,-2,0
1,1496755620,588,5,-30,-84,-50,-19,18,0
1,1496755620,588,6,-28,-88,-28,0,1,0
1,1496755620,588,7,-36,-93,-43,-2,-2,-2
1,1496755620,588,8,-30,-90,-35,-6,5,0
1,1496755620,588,9,-26,-97,-39,0,0,0
1,1496755620,588,10,-31,-92,-38,5,-8,0
1,1496755620,588,11,-20,-85,-39,5,-8,0
1,1496755620,588,12,-34,-89,-35,-21,18,-2
1,1496755620,588,13,-28,-91,-37,11,-8,0
1,1496755620,588,14,-23,-90,-33,-10,7,0
1,1496755620,588,15,-24,-90,-36,-2,1,0
1,1496755620,588,16,-20,-89,-42,-6,5,0
1,1496755620,588,17,-25,-89,-37,0,1,-2
1,1496755620,588,18,-24,-84,-42,3,0,1
1,1496755620,588,19,-21,-82,-45,-6,15,5
1,1496755620,588,20,-25,-87,-42,0,0,0
1,1496755623,592,1,-36,-88,-36,-4,1,0
1,1496755623,592,2,-38,-86,-33,-4,1,0
1,1496755623,592,3,-36,-89,-34,-2,1,0
1,1496755623,592,4,-34,-90,-35,-4,1,0
1,1496755623,592,5,-28,-89,-40,0,0,0
1,1496755623,592,6,-29,-84,-26,-4,7,0
1,1496755623,592,7,-4,-83,-57,5,-12,0
1,1496755623,592,8,-47,-88,0,9,-8,0
1,1496755623,592,9,-32,-99,-30,-2,1,0
1,1496755623,592,10,-25,-87,-33,0,0,0
1,1496755623,592,11,-26,-91,-30,-2,0,-2
1,1496755623,592,12,-29,-96,-40,-23,17,-4
1,1496755623,592,13,-24,-95,-26,-25,18,0
1,1496755623,592,14,-27,-88,-39,-2,5,-2
1,1496755623,592,15,-21,-91,-37,-2,3,0
1,1496755623,592,16,-22,-90,-39,-2,3,-2
1,1496755623,592,17,-23,-95,-40,-10,5,0
1,1496755623,592,18,-21,-87,-38,-2,1,0
1,1496755623,592,19,-21,-90,-38,0,1,0
1,1496755623,592,20,-21,-91,-36,-2,1,0
1,1496755624,593,1,-27,-98,-22,13,-8,0
1,1496755624,593,2,-22,-88,-32,13,-6,-4
1,1496755624,593,3,-32,-99,-11,47,-2,20
1,1496755624,593,4,-28,-103,2,-10,3,0
1,1496755624,593,5,-27,-83,-42,0,-2,1
1,1496755624,593,6,-21,-84,-37,-8,5,-4
1,1496755624,593,7,75,-57,-41,0,79,-101
1,1496755624,593,8,-16,-101,-5,0,11,-19
1,1496755624,593,9,-33,-98,-40,0,-2,0
1,1496755624,593,10,-16,-95,-33,-2,1,0
1,1496755624,593,11,-18,-96,-30,0,0,-2
1,1496755624,593,12,-14,-91,-33,-2,0,1
1,1496755624,593,13,-10,-90,-33,0,0,0
1,1496755624,593,14,-13,-92,-32,0,1,-4
1,1496755624,593,15,-20,-100,-34,0,5,-6
1,1496755624,593,16,-15,-94,-31,-2,1,0
1,1496755624,593,17,-10,-100,-32,-2,3,1
1,1496755624,593,18,-15,-94,-30,-2,1,1
1,1496755624,593,19,-16,-103,-31,-6,5,3
1,1496755624,593,20,-18,-108,-44,-6,0,9
1,1496755626,595,1,-1,-93,-32,-2,0,1
1,1496755626,595,2,2,-91,-34,0,1,0
1,1496755626,595,3,-8,-97,-39,0,0,0
1,1496755626,595,4,0,-93,-38,0,1,0
1,1496755626,595,5,-7,-104,-31,0,1,0
1,1496755626,595,6,-1,-98,-26,0,1,0
1,1496755626,595,7,-3,-104,-46,0,1,0
1,1496755626,595,8,0,-100,-38,0,1,0
1,1496755626,595,9,1,-94,-29,0,1,0
1,1496755626,595,10,5,-97,-25,-2,1,0
1,1496755626,595,11,21,-93,-39,-4,1,-4
1,1496755626,595,12,2,-93,-33,-2,3,-2
1,1496755626,595,13,-3,-94,-40,-2,3,0
1,1496755626,595,14,0,-98,-40,0,3,0
1,1496755626,595,15,0,-83,-36,-2,3,1
1,1496755626,595,16,-2,-99,-44,0,5,0
1,1496755626,595,17,2,-96,-40,-2,7,0
1,1496755626,595,18,10,-96,-43,-2,5,1
1,1496755626,595,19,3,-88,-39,0,7,1
1,1496755626,595,20,7,-89,-48,0,7,0
1,1496755627,596,1,1,-91,-32,0,5,1
1,1496755627,596,2,2,-87,-48,0,7,1
1,1496755627,596,3,1,-84,-33,-2,9,3
1,1496755627,596,4,0,-79,-50,0,7,1
1,1496755627,596,5,2,-82,-55,-4,13,7
1,1496755627,596,6,0,-79,-51,-2,13,3
1,1496755627,596,7,-1,-73,-41,0,11,3
1,1496755627,596,8,-7,-85,-39,-4,11,3
1,1496755627,596,9,-1,-97,-49,-2,15,5
1,1496755627,596,10,1,-83,-50,-4,17,7
1,1496755627,596,11,0,-93,-49,0,15,7
1,1496755627,596,12,0,-84,-55,0,13,7
1,1496755627,596,13,-3,-87,-52,0,13,5
1,1496755627,596,14,-2,-82,-48,0,17,7
1,1496755627,596,15,-9,-76,-53,0,17,7
1,1496755627,596,16,-12,-74,-59,0,18,9
1,1496755627,596,17,-9,-81,-56,1,18,11
1,1496755627,596,18,-12,-89,-55,0,18,9
1,1496755627,596,19,-4,-85,-53,0,18,7
1,1496755627,596,20,-3,-85,-53,1,18,7
1,1496755628,597,1,-9,-93,-60,0,20,5
1,1496755628,597,2,-3,-89,-59,1,18,5
1,1496755628,597,3,-14,-85,-58,0,18,5
1,1496755628,597,4,-3,-85,-52,0,20,7
1,1496755628,597,5,1,-85,-45,1,20,7
1,1496755628,597,6,-8,-84,-55,0,22,7
1,1496755628,597,7,-10,-76,-56,0,18,5
1,1496755628,597,8,-12,-67,-55,-2,18,9
1,1496755628,597,9,-15,-89,-61,1,18,5
1,1496755628,597,10,-23,-64,-60,0,20,11
1,1496755628,597,11,2,-97,-57,3,18,5
1,1496755628,597,12,-10,-92,-67,3,18,3
1,1496755628,597,13,-6,-83,-58,3,18,3
1,1496755628,597,14,-12,-82,-63,1,20,7
1,1496755628,597,15,-9,-80,-57,1,18,5
1,1496755628,597,16,-8,-70,-55,1,20,5
1,1496755628,597,17,-15,-76,-69,1,24,7
1,1496755628,597,18,-19,-82,-69,0,20,7
1,1496755628,597,19,-21,-73,-60,0,18,5
1,1496755628,597,20,-9,-88,-68,0,22,7
1,1496755630,599,1,-25,-75,-73,0,15,3
1,1496755630,599,2,-18,-62,-70,0,11,7
1,1496755630,599,3,-18,-66,-69,0,13,7
1,1496755630,599,4,-16,-76,-72,0,15,5
1,1496755630,599,5,-24,-88,-68,0,15,5
1,1496755630,599,6,-19,-74,-63,0,15,5
1,1496755630,599,7,-22,-71,-66,0,15,3
1,1496755630,599,8,-19,-85,-63,1,15,3
1,1496755630,599,9,-18,-77,-58,0,13,3
1,1496755630,599,10,-17,-73,-59,0,13,5
1,1496755630,599,11,-20,-80,-62,1,13,3
1,1496755630,599,12,-14,-75,-53,0,13,3
1,1496755630,599,13,-19,-72,-63,0,13,5
1,1496755630,599,14,-15,-76,-61,0,13,3
1,1496755630,599,15,-20,-71,-66,0,13,5
1,1496755630,599,16,-17,-73,-64,0,13,5
1,1496755630,599,17,-13,-76,-64,0,13,5
1,1496755630,599,18,-17,-83,-65,0,11,5
1,1496755630,599,19,-14,-84,-62,0,13,0
1,1496755630,599,20,-19,-75,-65,0,13,5
1,1496755631,600,1,-13,-80,-60,0,11,5
1,1496755631,600,2,-19,-81,-59,0,11,3
1,1496755631,600,3,-14,-80,-54,0,11,3
1,1496755631,600,4,-15,-79,-61,1,11,1
1,1496755631,600,5,-14,-78,-53,1,9,3
1,1496755631,600,6,-15,-84,-51,1,11,0
1,1496755631,600,7,-17,-82,-47,1,9,1
1,1496755631,600,8,-14,-84,-40,3,5,1
1,1496755631,600,9,-16,-88,-39,0,5,1
1,1496755631,600,10,-18,-90,-36,0,3,1
1,1496755631,600,11,-18,-94,-36,1,1,0
1,1496755631,600,12,-18,-93,-38,3,1,-2
1,1496755631,600,13,-17,-87,-36,3,3,-8
1,1496755631,600,14,-19,-101,-40,0,1,-4
1,1496755631,600,15,-24,-101,-36,0,0,-2
1,1496755631,600,16,-21,-91,-29,0,0,0
1,1496755631,600,17,-20,-84,-24,0,0,-2
1,1496755631,600,18,-15,-87,-30,1,0,-6
1,1496755631,600,19,-13,-88,-30,1,-2,-10
1,1496755631,600,20,-22,-94,-37,0,-4,-6
1,1496755632,601,1,-17,-88,-31,-2,-4,0
1,1496755632,601,2,-15,-88,-36,0,-4,-4
1,1496755632,601,3,-25,-101,-44,0,0,-10
1,1496755632,601,4,-20,-94,-43,-6,0,0
1,1496755632,601,5,-16,-93,-41,-6,0,0
1,1496755632,601,6,-15,-97,-47,-4,0,-2
1,1496755632,601,7,-15,-93,-42,-6,0,-2
1,1496755632,601,8,-17,-95,-46,0,0,-8
1,1496755632,601,9,-13,-82,-40,-2,1,-4
1,1496755632,601,10,-12,-87,-48,-2,0,-4
1,1496755632,601,11,-11,-83,-43,0,1,-4
1,1496755632,601,12,-11,-84,-48,-2,3,-2
1,1496755632,601,13,-8,-82,-50,-2,3,-2
1,1496755632,601,14,-10,-86,-49,-2,3,0
1,1496755632,601,15,-11,-80,-48,-2,1,0
1,1496755632,601,16,-5,-87,-52,-2,3,0
1,1496755632,601,17,-5,-88,-48,-4,3,0
1,1496755632,601,18,-13,-82,-45,-2,3,1
1,1496755632,601,19,-5,-86,-44,0,1,0
1,1496755632,601,20,-11,-90,-42,0,1,0
1,1496755633,602,1,-9,-91,-39,0,1,0
1,1496755633,602,2,-8,-91,-40,0,0,0
1,1496755633,602,3,-9,-91,-38,-2,1,0
1,1496755633,602,4,-9,-88,-36,0,1,0
1,1496755633,602,5,-13,-95,-44,-2,0,0
1,1496755633,602,6,-13,-87,-45,-4,0,0
1,1496755633,602,7,-14,-90,-43,0,0,-2
1,1496755633,602,8,-11,-93,-42,-2,0,0
1,1496755633,602,9,-8,-88,-37,0,0,0
1,1496755633,602,10,-11,-89,-41,0,0,0
1,1496755633,602,11,-14,-90,-48,-2,0,0
1,1496755633,602,12,-13,-88,-45,0,0,0
1,1496755633,602,13,-9,-90,-44,-2,0,0
1,1496755633,602,14,-16,-89,-45,-2,1,0
1,1496755633,602,15,-5,-96,-39,0,1,0
1,1496755633,602,16,-11,-86,-43,-4,1,0
1,1496755633,602,17,-6,-82,-47,0,1,0
1,1496755633,602,18,-8,-88,-44,1,1,0
1,1496755633,602,19,-14,-81,-44,0,1,0
1,1496755633,602,20,-10,-89,-39,0,1,0
1,1496755635,604,1,-13,-84,-40,0,0,0
1,1496755635,604,2,-15,-93,-44,0,0,0
1,1496755635,604,3,-18,-85,-44,-2,1,0
1,1496755635,604,4,-10,-85,-41,5,-2,0
1,1496755635,604,5,-11,-88,-45,0,3,0
1,1496755635,604,6,-17,-88,-49,0,3,-2
1,1496755635,604,7,-13,-91,-42,0,0,-2
1,1496755635,604,8,-18,-91,-53,0,0,-2
1,1496755635,604,9,-12,-88,-44,0,1,0
1,1496755635,604,10,-16,-93,-52,0,1,-2
1,1496755635,604,11,-8,-89,-35,-2,0,0
1,1496755635,604,12,-7,-90,-45,0,0,0
1,1496755635,604,13,-11,-91,-35,-2,1,-2
1,1496755635,604,14,-13,-81,-41,0,0,0
1,1496755635,604,15,-19,-87,-46,0,0,0
1,1496755635,604,16,-3,-94,-40,-2,1,-2
1,1496755635,604,17,-5,-88,-40,0,0,-2
1,1496755635,604,18,-5,-81,-42,0,1,-2
1,1496755635,604,19,-4,-93,-34,0,0,0
1,1496755635,604,20,-7,-97,-39,0,0,-2
1,1496755636,605,1,-8,-92,-39,-4,0,0
1,1496755636,605,2,-11,-93,-35,-2,0,0
1,1496755636,605,3,6,-98,-46,0,3,0
1,1496755636,605,4,-2,-93,-47,-4,3,0
1,1496755636,605,5,0,-83,-39,0,0,0
1,1496755636,605,6,-8,-97,-40,0,0,-2
1,1496755636,605,7,-8,-92,-53,-2,0,0
1,1496755636,605,8,-8,-88,-34,0,1,0
1,1496755636,605,9,2,-97,-36,0,1,0
1,1496755636,605,10,1,-88,-29,-4,5,0
1,1496755636,605,11,-9,-81,-40,0,0,0
1,1496755636,605,12,-11,-84,-36,0,0,0
1,1496755636,605,13,-5,-84,-28,0,0,0
1,1496755636,605,14,10,-83,-21,0,5,3
1,1496755636,605,15,-13,-93,-48,0,0,0
1,1496755636,605,16,-7,-85,-41,0,0,0
1,1496755636,605,17,-8,-113,-47,-4,0,5
1,1496755636,605,18,-10,-95,-43,-8,0,5
1,1496755636,605,19,-2,-94,-37,-4,0,11
1,1496755636,605,20,-15,-103,-41,-4,-2,11
1,1496755637,606,1,-17,-97,-41,0,-6,15
1,1496755637,606,2,0,-88,-54,-10,11,0
1,1496755637,606,3,-13,-109,-41,18,-8,0
1,1496755637,606,4,-19,-96,-50,-4,1,0
1,1496755637,606,5,-22,-83,-50,-2,3,-6
1,1496755637,606,6,-17,-86,-40,-4,3,-2
1,1496755637,606,7,-24,-79,-38,3,0,0
1,1496755637,606,8,-17,-87,-37,-4,3,-2
1,1496755637,606,9,-21,-79,-45,-4,0,1
1,1496755637,606,10,-20,-80,-46,-4,0,1
1,1496755637,606,11,-16,-81,-42,0,0,0
1,1496755637,606,12,-16,-80,-43,-2,3,0
1,1496755637,606,13,-17,-74,-44,-2,0,0
1,1496755637,606,14,-18,-76,-41,-2,0,0
1,1496755637,606,15,-17,-88,-48,0,0,-2
1,1496755637,606,16,-23,-83,-46,0,0,0
1,1496755637,606,17,-18,-83,-41,-2,0,0
1,1496755637,606,18,-15,-86,-48,-2,1,-2
1,1496755637,606,19,-22,-94,-56,3,7,-16
1,1496755637,606,20,-32,-90,-58,3,-2,-14
1,1496755638,608,1,-12,-100,-46,-2,3,-2
1,1496755638,608,2,-20,-107,-53,-2,1,0
1,1496755638,608,3,7,-80,-38,-8,1,1
1,1496755638,608,4,-16,-76,-36,-2,0,-2
1,1496755638,608,5,-1,-100,-54,0,0,0
1,1496755638,608,6,-13,-86,-50,-2,3,0
1,1496755638,608,7,-15,-71,-43,-2,1,0
1,1496755638,608,8,-18,-76,-46,0,0,0
1,1496755638,608,9,7,-84,-50,0,0,-2
1,1496755638,608,10,-12,-90,-44,0,1,0
1,1496755638,608,11,-8,-89,-48,0,0,0
1,1496755638,608,12,-14,-93,-47,-4,1,0
1,1496755638,608,13,-16,-92,-43,-2,0,0
1,1496755638,608,14,-8,-85,-47,-2,0,0
1,1496755638,608,15,-9,-82,-44,0,0,0
1,1496755638,608,16,-12,-91,-43,0,1,-2
1,1496755638,608,17,-18,-95,-59,0,0,0
1,1496755638,608,18,-18,-92,-46,-2,1,0
1,1496755638,608,19,-15,-90,-44,-2,3,-2
1,1496755638,608,20,-23,-86,-38,0,0,0
1,1496755639,609,1,-13,-91,-35,0,0,-2
1,1496755639,609,2,-13,-91,-41,-2,0,0
1,1496755639,609,3,-12,-80,-35,-4,0,0
1,1496755639,609,4,-12,-78,-44,0,1,0
1,1496755639,609,5,-11,-84,-50,0,1,0
1,1496755639,609,6,-22,-86,-52,0,0,1
1,1496755639,609,7,-14,-87,-43,-4,0,0
1,1496755639,609,8,-15,-100,-38,-2,0,5
1,1496755639,609,9,-17,-91,-59,-8,0,3
1,1496755639,609,10,-28,-92,-50,-4,-4,7
1,1496755639,609,11,-22,-78,-47,-8,-4,13
1,1496755639,609,12,-32,-77,-107,-63,37,-33
1,1496755639,609,13,-12,-88,-34,0,3,-6
1,1496755639,609,14,-25,-85,-41,0,0,-2
1,1496755639,609,15,-20,-81,-37,-4,0,0
1,1496755639,609,16,-17,-92,-32,3,1,-8
1,1496755639,609,17,-12,-86,-33,5,0,-6
1,1496755639,609,18,-18,-85,-38,1,0,-4
1,1496755639,609,19,-20,-90,-43,0,-2,0
1,1496755639,609,20,-13,-93,-44,-2,1,-4
1,1496755640,610,1,-17,-78,-38,-4,1,-2
1,1496755640,610,2,-15,-98,-50,-6,3,-2
1,1496755640,610,3,-12,-96,-46,0,0,-2
1,1496755640,610,4,-22,-76,-50,-2,0,-2
1,1496755640,610,5,-16,-86,-44,0,0,0
1,1496755640,610,6,-19,-75,-49,0,1,-2
1,1496755640,610,7,-11,-92,-54,0,0,-2
1,1496755640,610,8,-13,-83,-54,-2,1,-2
1,1496755640,610,9,-23,-84,-46,0,0,0
1,1496755640,610,10,-19,-79,-50,3,0,0
1,1496755640,610,11,-18,-79,-38,0,0,0
1,1496755640,610,12,-9,-87,-50,-2,1,1
1,1496755640,610,13,-19,-74,-46,-2,1,0
1,1496755640,610,14,-24,-88,-53,0,0,3
1,1496755640,610,15,-17,-84,-59,-6,3,3
1,1496755640,610,16,-17,-92,-48,3,0,-2
1,1496755640,610,17,-8,-86,-59,-6,7,-2
1,1496755640,610,18,-15,-95,-60,-4,1,-2
1,1496755640,610,19,-14,-84,-49,-6,3,0
1,1496755640,610,20,-17,-79,-45,-4,1,0
1,1496755641,611,1,-19,-86,-47,-2,0,0
1,1496755641,611,2,-12,-75,-45,-4,1,0
1,1496755641,611,3,-16,-90,-45,-4,1,1
1,1496755641,611,4,-23,-75,-51,-6,1,0
1,1496755641,611,5,-33,-88,-44,0,0,0
1,1496755641,611,6,-38,-61,-26,5,-6,3
1,1496755641,611,7,-19,-63,-62,-6,1,0
1,1496755641,611,8,2,-100,-67,-8,3,1
1,1496755641,611,9,-19,-61,-80,-18,7,1
1,1496755641,611,10,-1,-99,-52,-8,1,1
1,1496755641,611,11,-25,-58,-43,-2,-4,9
1,1496755641,611,12,-37,-77,-56,-6,-21,37
1,1496755641,611,13,-34,-41,-5,-10,26,-25
1,1496755641,611,14,-9,-68,-43,1,0,0
1,1496755641,611,15,-18,-102,-57,0,0,1
1,1496755641,611,16,-26,-105,-50,5,0,0
1,1496755641,611,17,-22,-110,-62,1,-2,0
1,1496755641,611,18,-21,-101,-43,5,0,-2
1,1496755641,611,19,-28,-91,-55,0,3,-4
1,1496755641,611,20,-21,-89,-53,0,1,-4
1,1496755642,612,1,-20,-83,-56,-2,5,-8
1,1496755642,612,2,-23,-91,-56,0,0,0
1,1496755642,612,3,-22,-63,-43,1,-2,0
1,1496755642,612,4,-13,-79,-47,-2,1,0
1,1496755642,612,5,-18,-82,-60,0,0,0
1,1496755642,612,6,-20,-70,-44,-4,5,1
1,1496755642,612,7,-18,-85,-56,-6,11,-6
1,1496755642,612,8,-23,-88,-43,-2,0,1
1,1496755642,612,9,-20,-89,-36,0,1,0
1,1496755642,612,10,-16,-94,-53,1,0,0
1,1496755642,612,11,-4,-97,-50,0,0,0
1,1496755642,612,12,-13,-99,-69,-4,1,-4
1,1496755642,612,13,-47,-63,-58,-8,7,0
1,1496755642,612,14,-22,-69,-62,-6,9,-6
1,1496755642,612,15,-34,-81,-82,-2,7,-4
1,1496755642,612,16,-26,-94,-57,5,0,-4
1,1496755642,612,17,-31,-97,-54,-2,3,-6
1,1496755642,612,18,-32,-90,-55,0,0,0
1,1496755642,612,19,-23,-81,-46,3,3,-6
1,1496755642,612,20,-18,-82,-42,0,-4,0
1,1496755643,613,1,-20,-77,-42,0,0,0
1,1496755643,613,2,-19,-81,-38,3,-10,7
1,1496755643,613,3,-14,-87,-30,3,-12,3
1,1496755643,613,4,-22,-94,-32,3,-8,-4
1,1496755643,613,5,-20,-92,-35,3,1,-4
1,1496755643,613,6,-27,-85,-39,0,-6,1
1,1496755643,613,7,-18,-85,-32,0,-4,1
1,1496755643,613,8,-20,-93,-34,0,0,-4
1,1496755643,613,9,-24,-79,-31,-6,0,0
1,1496755643,613,10,-26,-93,-34,-4,-4,-2
1,1496755643,613,11,-29,-89,-30,-6,0,-2
1,1496755643,613,12,-30,-92,-29,-2,0,-6
1,1496755643,613,13,-16,-91,-32,1,0,-6
1,1496755643,613,14,-32,-117,-50,-2,1,-8
1,1496755643,613,15,-16,-100,-60,-21,20,0
1,1496755643,613,16,-26,-90,-42,-2,0,-4
1,1496755643,613,17,-11,-107,-53,-2,5,-4
1,1496755643,613,18,-30,-85,-50,-6,3,0
1,1496755643,613,19,-13,-89,-47,-8,3,-2
1,1496755643,613,20,-18,-79,-35,0,3,0
1,1496755646,616,1,-19,-94,-35,0,1,0
1,1496755646,616,2,-2,-87,-16,-2,0,-8
1,1496755646,616,3,-29,-90,-15,17,-6,-14
1,1496755646,616,4,-20,-88,-46,-2,1,0
1,1496755646,616,5,-27,-101,-48,0,1,0
1,1496755646,616,6,-21,-89,-45,-2,1,1
1,1496755646,616,7,-18,-86,-36,0,1,-4
1,1496755646,616,8,-32,-94,-47,0,0,-4
1,1496755646,616,9,-28,-77,-46,1,5,7
1,1496755646,616,10,-20,-90,-47,0,3,3
1,1496755646,616,11,-21,-91,-48,0,1,1
1,1496755646,616,12,-27,-78,-41,5,-16,-6
1,1496755646,616,13,-35,-85,-44,7,-23,-4
1,1496755646,616,14,-24,-97,-45,0,-12,-4
1,1496755646,616,15,-30,-87,-36,0,-8,1
1,1496755646,616,16,-27,-91,-35,0,-2,0
1,1496755646,616,17,-29,-89,-52,0,7,0
1,1496755646,616,18,-30,-86,-36,1,-4,-6
1,1496755646,616,19,-29,-88,-36,0,0,-2
1,1496755646,616,20,-24,-85,-45,-4,1,0
1,1496755649,619,1,-28,-85,-45,0,1,-2
1,1496755649,619,2,-29,-78,-37,-4,7,-8
1,1496755649,619,3,-25,-94,-31,-2,1,-6
1,1496755649,619,4,-30,-81,-37,-8,7,0
1,1496755649,619,5,-23,-96,-44,-2,3,0
1,1496755649,619,6,-21,-85,-38,-6,3,0
1,1496755649,619,7,-18,-83,-36,-6,3,3
1,1496755649,619,8,-24,-70,-42,0,3,3
1,1496755649,619,9,-30,-87,-43,-2,-6,11
1,1496755649,619,10,-26,-91,-40,-6,-4,11
1,1496755649,619,11,-14,-79,-15,-10,15,-6
1,1496755649,619,12,-23,-83,-34,-4,1,0
1,1496755649,619,13,-26,-82,-43,-4,1,0
1,1496755649,619,14,-27,-81,-38,0,-4,-2
1,1496755649,619,15,-25,-85,-39,-4,1,0
1,1496755649,619,16,-28,-95,-43,0,-2,0
1,1496755649,619,17,-35,-91,-42,0,0,-2
1,1496755649,619,18,-31,-83,-44,-2,3,0
1,1496755649,619,19,-31,-77,-40,0,0,0
1,1496755649,619,20,-31,-93,-36,0,0,0
1,1496755650,620,1,-17,-85,-50,-4,3,-2
1,1496755650,620,2,-24,-80,-43,0,1,0
1,1496755650,620,3,-25,-88,-40,-2,0,0
1,1496755650,620,4,-27,-82,-37,-2,5,1
1,1496755650,620,5,-38,-64,-57,3,-2,1
1,1496755650,620,6,-52,-79,-41,0,0,0
1,1496755650,620,7,-81,-91,-39,53,-40,-40
1,1496755650,620,8,-30,-106,-54,0,7,0
1,1496755650,620,9,-27,-102,-36,0,-4,-2
1,1496755650,620,10,-26,-78,-38,0,1,0
1,1496755650,620,11,-13,-84,-35,1,0,-4
1,1496755650,620,12,-20,-94,-30,0,0,0
1,1496755650,620,13,-24,-92,-32,-2,0,0
1,1496755650,620,14,-28,-89,-37,-2,0,0
1,1496755650,620,15,-20,-82,-35,-2,0,0
1,1496755650,620,16,-24,-86,-37,0,0,0
1,1496755650,620,17,-21,-96,-35,-4,5,0
1,1496755650,620,18,-24,-87,-38,0,3,0
1,1496755650,620,19,-17,-90,-36,-2,1,0
1,1496755650,620,20,-21,-93,-38,-2,1,-2
1,1496755653,623,1,-11,-87,-36,-4,1,1
1,1496755653,623,2,-20,-89,-29,0,-2,0
1,1496755653,623,3,-24,-91,-42,0,0,0
1,1496755653,623,4,-21,-95,-34,-2,1,0
1,1496755653,623,5,-20,-87,-29,-4,1,0
1,1496755653,623,6,-20,-87,-39,-2,0,-2
1,1496755653,623,7,-13,-91,-34,-4,3,0
1,1496755653,623,8,-17,-94,-34,-2,0,0
1,1496755653,623,9,-17,-85,-27,-4,0,1
1,1496755653,623,10,-17,-86,-23,0,0,0
1,1496755653,623,11,-21,-79,-27,-2,0,0
1,1496755653,623,12,-23,-99,-30,-4,0,0
1,1496755653,623,13,-22,-94,-31,-8,3,0
1,1496755653,623,14,-24,-78,-36,-2,0,0
1,1496755653,623,15,-23,-88,-40,0,0,-2
1,1496755653,623,16,-22,-87,-42,0,0,-2
1,1496755653,623,17,-20,-93,-41,-2,0,0
1,1496755653,623,18,-17,-90,-34,-2,0,0
1,1496755653,623,19,-21,-94,-35,-2,0,-2
1,1496755653,623,20,-12,-94,-35,-6,3,0
1,1496755653,624,1,-15,-89,-37,-4,3,0
1,1496755653,624,2,-23,-77,-36,-2,0,0
1,1496755653,624,3,-16,-89,-34,-2,0,-4
1,1496755653,624,4,-21,-100,-42,0,1,0
1,1496755653,624,5,-22,-101,-39,-2,1,0
1,1496755653,624,6,-19,-96,-35,-2,1,-2
1,1496755653,624,7,-21,-95,-41,7,0,-2
1,1496755653,624,8,-16,-87,-39,0,0,-2
1,1496755653,624,9,-22,-87,-37,0,-2,-2
1,1496755653,624,10,-19,-93,-32,0,0,0
1,1496755653,624,11,-18,-91,-46,-2,5,0
1,1496755653,624,12,-19,-88,-33,-2,0,0
1,1496755653,624,13,-13,-84,-31,-23,20,-2
1,1496755653,624,14,-27,-75,-46,-10,9,0
1,1496755653,624,15,-17,-95,-33,0,1,0
1,1496755653,624,16,-21,-91,-37,0,0,0
1,1496755653,624,17,-24,-92,-40,-4,0,1
1,1496755653,624,18,-21,-87,-34,-6,1,0
1,1496755653,624,19,-24,-87,-42,-4,0,0
1,1496755653,624,20,-18,-88,-46,-6,3,0
1,1496755654,625,1,-16,-87,-36,-2,1,0
1,1496755654,625,2,-18,-89,-41,0,1,-2
1,1496755654,625,3,-19,-91,-44,-6,3,0
1,1496755654,625,4,-19,-93,-31,-4,1,0
1,1496755654,625,5,-20,-97,-35,0,0,0
1,1496755654,625,6,-19,-89,-37,0,0,0
1,1496755654,625,7,-17,-96,-37,0,0,0
1,1496755654,625,8,-24,-89,-43,-2,0,0
1,1496755654,625,9,-17,-87,-33,0,0,0
1,1496755654,625,10,-12,-92,-35,0,1,0
1,1496755654,625,11,-17,-86,-34,0,0,0
1,1496755654,625,12,-21,-92,-35,0,1,0
1,1496755654,625,13,-20,-98,-54,0,1,0
1,1496755654,625,14,-17,-86,-37,-2,1,0
1,1496755654,625,15,-18,-86,-47,-4,3,-2
1,1496755654,625,16,-13,-88,-34,-2,1,0
1,1496755654,625,17,-17,-87,-38,-2,1,0
1,1496755654,625,18,-21,-91,-42,-2,1,0
1,1496755654,625,19,-14,-91,-33,0,1,0
1,1496755654,625,20,-18,-88,-37,-2,0,0
1,1496755655,626,1,-20,-92,-38,0,0,0
1,1496755655,626,2,-20,-89,-38,0,0,0
1,1496755655,626,3,-18,-90,-38,0,0,0
1,1496755655,626,4,-18,-90,-45,-4,1,1
1,1496755655,626,5,-23,-87,-42,-4,3,0
1,1496755655,626,6,-16,-92,-37,0,0,-2
1,1496755655,626,7,-17,-82,-40,-2,1,0
1,1496755655,626,8,-21,-84,-39,0,0,0
1,1496755655,626,9,-21,-85,-58,-4,3,1
1,1496755655,626,10,-20,-95,-39,0,1,0
1,1496755655,626,11,-20,-94,-35,0,1,0
1,1496755655,626,12,-21,-94,-39,0,0,-2
1,1496755655,626,13,-18,-96,-36,-2,1,0
1,1496755655,626,14,-19,-87,-33,-2,0,-2
1,1496755655,626,15,-19,-89,-33,-4,3,-2
1,1496755655,626,16,-17,-87,-35,0,0,0
1,1496755655,626,17,-14,-93,-36,-2,1,0
1,1496755655,626,18,-18,-94,-38,-2,0,0
1,1496755655,626,19,-21,-81,-34,0,0,0
1,1496755655,626,20,-19,-86,-44,0,1,0
1,1496755656,627,1,-24,-97,-44,0,1,-2
1,1496755656,627,2,-19,-102,-46,-2,1,-2
1,1496755656,627,3,-22,-103,-37,0,0,0
1,1496755656,627,4,-20,-83,-36,0,0,0
1,1496755656,627,5,-29,-93,-42,0,0,-2
1,1496755656,627,6,-32,-87,-51,-2,0,0
1,1496755656,627,7,-21,-79,-37,0,0,0
1,1496755656,627,8,-26,-98,-45,-2,0,0
1,1496755656,627,9,-19,-88,-36,-2,0,0
1,1496755656,627,10,-19,-78,-50,-8,0,1
1,1496755656,627,11,-25,-77,-37,0,-4,0
1,1496755656,627,12,-21,-79,-37,-2,0,0
1,1496755656,627,13,-23,-85,-36,-2,0,0
1,1496755656,627,14,-17,-86,-33,11,-2,3
1,1496755656,627,15,-23,-88,-37,-2,0,1
1,1496755656,627,16,-32,-100,-44,3,-6,0
1,1496755656,627,17,-15,-82,-22,0,0,0
1,1496755656,627,18,-24,-86,-42,-8,0,0
1,1496755656,627,19,-20,-98,-38,-4,3,-2
1,1496755656,627,20,-19,-96,-37,0,0,-2
1,1496755657,628,1,-22,-95,-33,0,0,-2
1,1496755657,628,2,-28,-96,-37,3,-6,0
1,1496755657,628,3,-19,-86,-32,-2,1,0
1,1496755657,628,4,-17,-83,-34,-6,3,-2
1,1496755657,628,5,-18,-88,-43,-2,0,0
1,1496755657,628,6,-26,-86,-43,1,-2,0
1,1496755657,628,7,-18,-87,-34,3,-4,0
1,1496755657,628,8,-22,-93,-34,5,-4,0
1,1496755657,628,9,-24,-94,-35,0,0,0
1,1496755657,628,10,-25,-99,-37,0,0,-2
1,1496755657,628,11,-17,-82,-35,-10,3,0
1,1496755657,628,12,-17,-85,-34,-4,1,0
1,1496755657,628,13,-32,-92,-45,0,0,-2
1,1496755657,628,14,-23,-90,-30,0,0,0
1,1496755657,628,15,-17,-90,-31,0,0,-4
1,1496755657,628,16,-18,-89,-46,-6,1,0
1,1496755657,628,17,-21,-90,-20,1,-4,0
1,1496755657,628,18,-22,-90,-45,-2,1,0
1,1496755657,628,19,-24,-78,-42,-4,0,0
1,1496755657,628,20,-18,-85,-34,-4,3,0
1,1496755658,629,1,-15,-107,-38,-4,3,0
1,1496755658,629,2,-15,-93,-61,-18,3,-4
1,1496755658,629,3,-13,-97,-31,-4,3,0
1,1496755658,629,4,-20,-85,-43,0,0,-2
1,1496755658,629,5,-20,-77,-36,-6,1,0
1,1496755658,629,6,-33,-83,-52,3,-6,0
1,1496755658,629,7,-27,-78,-53,0,3,-2
1,1496755658,629,8,-15,-81,-42,-6,5,0
1,1496755658,629,9,-19,-83,-45,-4,3,-2
1,1496755658,629,10,-18,-79,-32,-4,1,0
1,1496755658,629,11,-36,-103,-49,1,-6,0
1,1496755658,629,12,-20,-89,-35,-2,0,1
1,1496755658,629,13,-10,-88,-32,-8,0,1
1,1496755658,629,14,-25,-93,-35,3,-2,0
1,1496755658,629,15,-18,-88,-35,0,1,-2
1,1496755658,629,16,-23,-90,-45,-6,1,0
1,1496755658,629,17,-16,-95,-31,-2,1,0
1,1496755658,629,18,-18,-81,-33,0,0,0
1,1496755658,629,19,-26,-85,-51,-2,-2,3
1,1496755658,629,20,-17,-81,-32,-2,0,0
1,1496755659,630,1,-11,-80,-44,3,-4,5
1,1496755659,630,2,-25,-65,-49,3,17,0
1,1496755659,630,3,-13,-78,-49,-6,5,1
1,1496755659,630,4,-5,-73,-34,3,13,-2
1,1496755659,630,5,-24,-99,-39,-6,3,-10
1,1496755659,630,6,-14,-95,-57,-23,11,0
1,1496755659,630,7,-23,-82,-36,-19,5,0
1,1496755659,630,8,-27,-85,-45,-10,3,-2
1,1496755659,630,9,-18,-85,-27,0,-6,1
1,1496755659,630,10,-27,-92,-28,9,-6,-4
1,1496755659,630,11,-19,-89,-30,-2,3,-2
1,1496755659,630,12,-9,-85,-30,0,5,-4
1,1496755659,630,13,-12,-97,-32,3,1,0
1,1496755659,630,14,-27,-106,-40,3,-8,13
1,1496755659,630,15,-36,-106,-37,7,-31,41
1,1496755659,630,16,-69,-90,22,11,36,28
1,1496755659,630,17,-9,-74,-62,17,-6,-6
1,1496755659,630,18,-17,-87,-59,-19,13,-8
1,1496755659,630,19,-23,-75,-64,3,-2,0
1,1496755659,630,20,-27,-85,-65,-16,7,0
1,1496755660,631,1,-24,-89,-50,-23,15,-2
1,1496755660,631,2,-20,-76,-49,-10,1,1
1,1496755660,631,3,-31,-81,-58,-16,9,-2
1,1496755660,631,4,-26,-90,-54,-2,1,0
1,1496755660,631,5,-22,-80,-37,-4,0,0
1,1496755660,631,6,-25,-86,-36,-4,1,0
1,1496755660,631,7,-33,-78,-46,-6,0,1
1,1496755660,631,8,-43,-71,-46,-10,1,1
1,1496755660,631,9,-30,-91,-48,-16,13,-2
1,1496755660,631,10,-28,-88,-45,-4,0,1
1,1496755660,631,11,-31,-92,-48,-4,1,-2
1,1496755660,631,12,-36,-81,-54,-8,5,-2
1,1496755660,631,13,-24,-82,-43,-4,1,0
1,1496755660,631,14,-24,-83,-43,-8,1,0
1,1496755660,631,15,-33,-83,-41,-2,1,0
1,1496755660,631,16,-32,-85,-47,-6,5,0
1,1496755660,631,17,-17,-84,-23,7,0,0
1,1496755660,631,18,-23,-87,-40,1,0,0
1,1496755660,631,19,-37,-88,-48,9,-8,0
1,1496755660,631,20,-30,-74,-53,3,-4,0
1,1496755661,632,1,-34,-88,-54,1,3,-2
1,1496755661,632,2,-30,-79,-55,1,-2,0
1,1496755661,632,3,-28,-83,-53,7,-4,0
1,1496755661,632,4,-28,-76,-48,7,-4,0
1,1496755661,632,5,-21,-81,-48,3,0,0
1,1496755661,632,6,-27,-85,-46,9,-6,0
1,1496755661,632,7,-38,-87,-42,-4,9,-4
1,1496755661,632,8,-21,-82,-35,-4,11,-2
1,1496755661,632,9,-20,-79,-46,-14,7,1
1,1496755661,632,10,-32,-84,-51,-18,7,0
1,1496755661,632,11,-39,-91,-64,-19,9,0
1,1496755661,632,12,-25,-79,-38,-8,11,0
1,1496755661,632,13,-24,-83,-48,-12,11,0
1,1496755661,632,14,-30,-91,-40,11,-8,0
1,1496755661,632,15,-28,-80,-37,7,-2,-2
1,1496755661,632,16,-35,-87,-40,15,-2,-2
1,1496755661,632,17,-30,-90,-41,7,0,-2
1,1496755661,632,18,-16,-84,-33,-10,11,-2
1,1496755661,632,19,-21,-81,-43,-10,3,0
1,1496755661,632,20,-33,-84,-39,-2,-4,3
1,1496755662,633,1,-33,-81,-46,-12,5,0
1,1496755662,633,2,-33,-96,-38,-14,5,0
1,1496755662,633,3,-18,-88,-40,-18,7,-2
1,1496755662,633,4,-34,-88,-48,7,-8,0
1,1496755662,633,5,-42,-85,-51,-2,1,-2
1,1496755662,633,6,-26,-75,-38,-8,9,0
1,1496755662,633,7,-36,-84,-60,-12,7,-4
1,1496755662,633,8,-44,-97,-61,-10,0,0
1,1496755662,633,9,-26,-66,-29,-2,7,-4
1,1496755662,633,10,-31,-88,-23,3,-4,0
1,1496755662,633,11,-42,-84,-44,-6,0,1
1,1496755662,633,12,-25,-91,-44,-10,9,-4
1,1496755662,633,13,-37,-81,-42,0,0,-2
1,1496755662,633,14,-30,-82,-30,-6,5,-2
1,1496755662,633,15,-43,-91,-34,17,-18,3
1,1496755662,633,16,-22,-70,-47,-2,0,0
1,1496755662,633,17,-35,-84,-36,-2,1,-2
1,1496755662,633,18,-42,-95,-36,0,0,0
1,1496755662,633,19,-54,-82,-29,5,-2,0
1,1496755662,633,20,-39,-78,-32,1,-2,0
1,1496755664,635,1,-38,-93,-48,0,5,-4
1,1496755664,635,2,-29,-91,-46,3,-2,0
1,1496755664,635,3,-36,-74,-43,-12,9,-2
1,1496755664,635,4,-28,-92,-46,3,0,-2
1,1496755664,635,5,-28,-84,-34,9,-4,0
1,1496755664,635,6,-44,-94,-41,5,-4,0
1,1496755664,635,7,-40,-88,-32,1,-2,0
1,1496755664,635,8,-38,-82,-32,9,-4,0
1,1496755664,635,9,-43,-89,-37,3,-2,0
1,1496755664,635,10,-34,-72,-32,3,0,0
1,1496755664,635,11,-42,-75,-36,-4,0,1
1,1496755664,635,12,-29,-79,-58,5,0,0
1,1496755664,635,13,-42,-83,-34,18,-14,-2
1,1496755664,635,14,-33,-90,-43,-25,9,5
1,1496755664,635,15,-46,-92,-34,-2,0,1
1,1496755664,635,16,-44,-95,-40,-2,1,-2
1,1496755664,635,17,-37,-82,-31,-2,1,0
1,1496755664,635,18,-39,-79,-32,-2,1,0
1,1496755664,635,19,-32,-78,-34,-2,1,0
1,1496755664,635,20,-40,-87,-40,-6,1,0
1,1496755665,636,1,-22,-74,-23,-4,3,-2
1,1496755665,636,2,-47,-82,-11,-14,7,0
1,1496755665,636,3,-12,-86,-28,15,-2,1
1,1496755665,636,4,-29,-89,-32,-4,0,0
1,1496755665,636,5,-28,-84,-29,-16,7,-2
1,1496755665,636,6,-26,-83,-37,-6,3,0
1,1496755665,636,7,-30,-86,-38,-4,1,0
1,1496755665,636,8,-34,-87,-44,-4,0,0
1,1496755665,636,9,-30,-88,-39,-4,0,0
1,1496755665,636,10,-41,-84,-44,-2,0,0
1,1496755665,636,11,-35,-85,-38,-2,1,0
1,1496755665,636,12,-34,-86,-41,-4,0,0
1,1496755665,636,13,-37,-88,-39,0,0,-2
1,1496755665,636,14,-34,-86,-36,0,1,-2
1,1496755665,636,15,-44,-95,-40,-6,0,0
1,1496755665,636,16,-43,-85,-35,0,0,0
1,1496755665,636,17,-39,-84,-40,1,0,0
1,1496755665,636,18,-39,-89,-44,-2,0,0
1,1496755665,636,19,-44,-82,-37,-2,0,0
1,1496755665,636,20,-48,-84,-40,0,0,0
1,1496755669,641,1,-18,-83,-70,1,24,13
1,1496755669,641,2,-21,-64,-70,0,26,11
1,1496755669,641,3,-19,-55,-66,0,24,11
1,1496755669,641,4,-17,-81,-57,1,22,11
1,1496755669,641,5,-13,-83,-69,0,26,11
1,1496755669,641,6,-20,-94,-69,0,26,11
1,1496755669,641,7,-11,-68,-66,1,22,13
1,1496755669,641,8,-20,-69,-73,1,20,11
1,1496755669,641,9,-19,-78,-74,0,24,11
1,1496755669,641,10,-17,-71,-68,3,20,13
1,1496755669,641,11,-17,-85,-71,1,24,11
1,1496755669,641,12,-18,-92,-68,1,24,9
1,1496755669,641,13,-15,-76,-55,5,22,11
1,1496755669,641,14,-15,-81,-60,0,28,9
1,1496755669,641,15,-20,-94,-62,-4,26,11
1,1496755669,641,16,-5,-67,-51,7,18,11
1,1496755669,641,17,-14,-87,-61,0,24,7
1,1496755669,641,18,-19,-57,-58,3,20,9
1,1496755669,641,19,-13,-73,-63,3,20,7
1,1496755669,641,20,-12,-71,-64,0,22,9
1,1496755670,642,1,-8,-64,-66,3,22,9
1,1496755670,642,2,-11,-70,-64,1,22,11
1,1496755670,642,3,-7,-82,-61,1,22,11
1,1496755670,642,4,-10,-84,-67,3,20,9
1,1496755670,642,5,-6,-77,-62,1,20,9
1,1496755670,642,6,-20,-76,-73,1,18,7
1,1496755670,642,7,-24,-77,-77,1,18,11
1,1496755670,642,8,-12,-83,-69,0,20,9
1,1496755670,642,9,-11,-81,-62,1,18,11
1,1496755670,642,10,-7,-67,-57,1,18,9
1,1496755670,642,11,-6,-74,-61,1,20,9
1,1496755670,642,12,-8,-74,-63,1,20,7
1,1496755670,642,13,-3,-76,-75,0,20,9
1,1496755670,642,14,-3,-73,-64,0,20,9
1,1496755670,642,15,-7,-86,-69,0,18,7
1,1496755670,642,16,-6,-82,-57,7,15,5
1,1496755670,642,17,-13,-82,-60,3,17,7
1,1496755670,642,18,-8,-86,-58,1,20,5
1,1496755670,642,19,-7,-81,-64,0,20,7
1,1496755670,642,20,-10,-82,-66,1,17,7
1,1496755670,642,1,-7,-84,-68,5,13,5
1,1496755670,642,2,-6,-77,-64,3,17,3
1,1496755670,642,3,-9,-85,-67,1,18,5
1,1496755670,642,4,-5,-80,-60,3,15,3
1,1496755670,642,5,-3,-84,-64,3,17,3
1,1496755670,642,6,-3,-86,-67,1,15,1
1,1496755670,642,7,-4,-87,-61,1,15,3
1,1496755670,642,8,-1,-74,-55,1,13,3
1,1496755670,642,9,-2,-76,-53,3,13,1
1,1496755670,642,10,-2,-84,-58,0,15,1
1,1496755670,642,11,-3,-81,-62,-6,17,5
1,1496755670,642,12,0,-83,-61,0,11,5
1,1496755670,642,13,-5,-91,-66,-2,15,5
1,1496755670,642,14,-3,-80,-61,-4,15,5
1,1496755670,642,15,-6,-85,-58,0,9,5
1,1496755670,642,16,-5,-90,-61,0,9,5
1,1496755670,642,17,-7,-87,-55,1,7,5
1,1496755670,642,18,-8,-86,-58,1,20,5
1,1496755670,642,19,-7,-81,-64,0,20,7
1,1496755670,642,20,-10,-82,-66,1,17,7
1,1496755671,644,1,-2,-86,-51,0,11,1
1,1496755671,644,2,-2,-87,-57,1,9,3
1,1496755671,644,3,-1,-83,-53,5,5,1
1,1496755671,644,4,-6,-98,-50,0,7,3
1,1496755671,644,5,-3,-87,-52,0,7,1
1,1496755671,644,6,-1,-85,-48,0,9,0
1,1496755671,644,7,-3,-88,-52,-2,7,0
1,1496755671,644,8,-6,-96,-52,0,1,0
1,1496755671,644,9,-4,-94,-49,3,7,-4
1,1496755671,644,10,-8,-89,-48,0,5,-2
1,1496755671,644,11,-3,-82,-34,3,5,-4
1,1496755671,644,12,-1,-76,-42,5,0,0
1,1496755671,644,13,-4,-89,-47,7,1,-2
1,1496755671,644,14,1,-88,-37,0,5,0
1,1496755671,644,15,-1,-84,-42,0,5,1
1,1496755671,644,16,-1,-97,-46,-2,3,0
1,1496755671,644,17,-9,-101,-42,-2,3,1
1,1496755671,644,18,-8,-90,-38,0,0,0
1,1496755671,644,19,-6,-82,-40,-2,1,0
1,1496755671,644,20,2,-86,-33,0,1,0
1,1496755673,646,1,-29,-86,-42,-8,3,0
1,1496755673,646,2,-29,-87,-42,0,-4,1
1,1496755673,646,3,-28,-80,-47,1,0,0
1,1496755673,646,4,-31,-82,-45,-8,3,-2
1,1496755673,646,5,-23,-79,-48,3,1,0
1,1496755673,646,6,-17,-93,-48,-12,13,-6
1,1496755673,646,7,-26,-87,-57,-4,0,1
1,1496755673,646,8,-25,-85,-47,0,0,0
1,1496755673,646,9,-25,-87,-43,0,0,-2
1,1496755673,646,10,-27,-84,-43,-4,0,0
1,1496755673,646,11,-28,-83,-45,-2,0,-2
1,1496755673,646,12,-15,-78,-39,-6,5,-2
1,1496755673,646,13,-19,-79,-43,0,3,-10
1,1496755673,646,14,-29,-97,-49,0,5,-8
1,1496755673,646,15,-30,-87,-45,1,1,-8
1,1496755673,646,16,-22,-89,-38,-2,0,-2
1,1496755673,646,17,-13,-90,-38,1,1,-6
1,1496755673,646,18,-127,127,-9,58,-4,1
1,1496755673,646,19,-25,-92,-38,0,0,-2
1,1496755673,646,20,-17,-88,-42,0,0,0
1,1496755674,647,1,-21,-89,-45,0,3,-2
1,1496755674,647,2,-16,-90,-40,0,3,-2
1,1496755674,647,3,-23,-94,-42,0,0,0
1,1496755674,647,4,-24,-82,-41,0,0,-2
1,1496755674,647,5,-11,-87,-41,0,0,-2
1,1496755674,647,6,-12,-86,-50,0,0,0
1,1496755674,647,7,-7,-95,-41,0,1,0
1,1496755674,647,8,-14,-93,-54,-2,0,0
1,1496755674,647,9,-11,-95,-41,-2,0,0
1,1496755674,647,10,-9,-93,-40,-2,1,0
1,1496755674,647,11,-9,-89,-36,0,1,-2
1,1496755674,647,12,-10,-99,-41,-2,1,0
1,1496755674,647,13,-11,-96,-50,-2,0,0
1,1496755674,647,14,1,-95,-47,-2,0,0
1,1496755674,647,15,-11,-98,-39,-2,0,0
1,1496755674,647,16,-12,-86,-38,-2,1,0
1,1496755674,647,17,-5,-88,-42,-2,1,0
1,1496755674,647,18,-6,-87,-53,0,0,0
1,1496755674,647,19,2,-89,-37,-2,1,0
1,1496755674,647,20,0,-90,-45,-2,1,0
1,1496755675,648,1,-6,-92,-41,-2,1,0
1,1496755675,648,2,0,-83,-43,0,0,0
1,1496755675,648,3,0,-95,-48,-4,1,0
1,1496755675,648,4,-13,-91,-48,0,-4,1
1,1496755675,648,5,-5,-96,-47,0,1,-2
1,1496755675,648,6,0,-90,-42,0,0,0
1,1496755675,648,7,0,-80,-45,-6,0,0
1,1496755675,648,8,-1,-71,-38,0,0,0
1,1496755675,648,9,-6,-104,-36,-4,-4,5
1,1496755675,648,10,-5,-84,-35,0,-2,5
1,1496755675,648,11,-4,-91,-37,-4,1,1
1,1496755675,648,12,-11,-88,-43,1,0,5
1,1496755675,648,13,-20,-94,-39,0,1,0
1,1496755675,648,14,-16,-79,-35,-4,1,0
1,1496755675,648,15,-27,-101,-53,-8,1,9
1,1496755675,648,16,-33,-105,-46,1,-23,37
1,1496755675,648,17,-82,-99,10,-54,20,13
1,1496755675,648,18,3,-88,-69,3,-29,5
1,1496755675,648,19,-31,-88,-43,-8,1,-2
1,1496755675,648,20,-18,-94,-36,0,0,0
1,1496755676,649,1,-23,-89,-35,-6,3,0
1,1496755676,649,2,-19,-91,-30,-14,9,-4
1,1496755676,649,3,-21,-100,-33,-6,0,0
1,1496755676,649,4,-23,-95,-33,-2,1,-2
1,1496755676,649,5,-34,-89,-34,3,-4,0
1,1496755676,649,6,-24,-84,-30,1,-2,-2
1,1496755676,649,7,-28,-88,-29,7,-4,-2
1,1496755676,649,8,-29,-92,-34,3,-8,-2
1,1496755676,649,9,-34,-83,-29,0,0,-4
1,1496755676,649,10,-28,-108,-35,-31,11,-23
1,1496755676,649,11,-27,-91,-44,-10,5,-8
1,1496755676,649,12,-32,-100,-28,7,-8,0
1,1496755676,649,13,-31,-87,-39,-4,-2,0
1,1496755676,649,14,-36,-82,-35,0,-4,0
1,1496755676,649,15,-31,-90,-30,0,-6,1
1,1496755676,649,16,-27,-83,-33,-2,0,5
1,1496755676,649,17,-35,-95,-27,-19,5,0
1,1496755676,649,18,-33,-85,-31,-14,5,-2
1,1496755676,649,19,-32,-91,-32,-19,3,-2
1,1496755676,649,20,-31,-87,-36,-12,0,-2
1,1496755677,650,1,-33,-95,-36,-10,0,-2
1,1496755677,650,2,-39,-95,-31,-12,0,-4
1,1496755677,650,3,-38,-91,-32,-6,-2,-2
1,1496755677,650,4,-35,-94,-23,-2,-2,-2
1,1496755677,650,5,-34,-106,-20,0,-6,-2
1,1496755677,650,6,-33,-95,-14,3,-10,-2
1,1496755677,650,7,-31,-88,-19,3,-10,-4
1,1496755677,650,8,-37,-90,-22,0,-12,-4
1,1496755677,650,9,-39,-99,-25,0,-10,-4
1,1496755677,650,10,-36,-101,-23,0,-8,-2
1,1496755677,650,11,-35,-96,-20,-2,-8,-4
1,1496755677,650,12,-33,-100,-26,-8,-8,-2
1,1496755677,650,13,-35,-98,-19,0,-8,-4
1,1496755677,650,14,-37,-95,-17,0,-8,-6
1,1496755677,650,15,70,91,-64,-63,24,-46
1,1496755677,650,16,-35,-92,-4,-12,-4,-8
1,1496755677,650,17,-29,-98,-24,-12,-2,-8
1,1496755677,650,18,-27,-94,-17,3,-14,-8
1,1496755677,650,19,-31,-94,-8,7,-16,-8
1,1496755677,650,20,-36,-94,-23,0,-12,-8
1,1496755679,652,1,-30,-92,-17,-8,-6,-4
1,1496755679,652,2,-32,-98,-19,-8,-8,-2
1,1496755679,652,3,-33,-92,-24,-8,-6,-2
1,1496755679,652,4,-33,-93,-23,-6,-8,-2
1,1496755679,652,5,-32,-93,-24,-8,-4,-2
1,1496755679,652,6,-30,-95,-25,-6,-6,-6
1,1496755679,652,7,-29,-92,-26,-4,-6,-6
1,1496755679,652,8,-28,-91,-28,-2,-8,-6
1,1496755679,652,9,-31,-86,-31,-6,-2,-4
1,1496755679,652,10,-30,-91,-28,0,-4,-10
1,1496755679,652,11,-25,-89,-26,-2,-2,-8
1,1496755679,652,12,-21,-99,-38,-2,-25,0
1,1496755679,652,13,-25,-92,-38,-4,0,0
1,1496755679,652,14,-20,-94,-33,-2,-2,-4
1,1496755679,652,15,-11,-97,-35,-4,-2,-2
1,1496755679,652,16,1,-98,-25,-10,-4,0
1,1496755679,652,17,-22,-97,-26,-2,-8,0
1,1496755679,652,18,-18,-87,-25,0,0,-2
1,1496755679,652,19,-9,-95,-29,0,0,-2
1,1496755679,652,20,-5,-94,-31,-4,0,0
1,1496755680,653,1,-14,-97,-36,0,-2,0
1,1496755680,653,2,-14,-93,-37,-8,0,0
1,1496755680,653,3,-18,-96,-37,-4,-2,0
1,1496755680,653,4,-12,-93,-35,0,-2,0
1,1496755680,653,5,-9,-95,-34,0,-2,0
1,1496755680,653,6,-11,-96,-31,0,-4,0
1,1496755680,653,7,-7,-92,-41,-6,-2,0
1,1496755680,653,8,-14,-98,-45,-10,-4,3
1,1496755680,653,9,-20,-82,-52,-2,-4,1
1,1496755680,653,10,-10,-89,-42,-8,0,0
1,1496755680,653,11,-11,-87,-39,-14,0,1
1,1496755680,653,12,-20,-97,-41,-2,0,0
1,1496755680,653,13,-20,-89,-37,0,1,0
1,1496755680,653,14,-13,-91,-35,-2,0,0
1,1496755680,653,15,-18,-87,-42,0,-2,0
1,1496755680,653,16,-28,-92,-49,-2,0,5
1,1496755680,653,17,-19,-86,-46,-8,-4,20
1,1496755680,653,18,85,56,81,-35,54,75
1,1496755680,653,19,-57,-80,-59,-40,39,34
1,1496755680,653,20,-2,-97,-53,13,-6,0
1,1496755681,654,1,-13,-84,-45,11,-4,1
1,1496755681,654,2,-23,-84,-43,7,0,1
1,1496755681,654,3,-19,-91,-47,0,3,0
1,1496755681,654,4,-25,-82,-56,3,0,0
1,1496755681,654,5,-22,-83,-57,-4,5,0
1,1496755681,654,6,-25,-91,-57,1,1,0
1,1496755681,654,7,-25,-79,-56,0,0,0
1,1496755681,654,8,-27,-77,-50,-4,7,0
1,1496755681,654,9,-28,-80,-50,0,7,1
1,1496755681,654,10,-28,-69,-52,1,3,0
1,1496755681,654,11,-23,-65,-61,-2,5,0
1,1496755681,654,12,-22,-78,-64,1,0,5
1,1496755681,654,13,-27,-84,-56,0,9,0
1,1496755681,654,14,-34,-84,-61,0,7,3
1,1496755681,654,15,-32,-68,-60,1,5,1
1,1496755681,654,16,-26,-63,-61,-4,11,0
1,1496755681,654,17,-16,-69,-59,0,7,0
1,1496755681,654,18,-17,-72,-75,-2,11,1
1,1496755681,654,19,-35,-73,-62,7,5,1
1,1496755681,654,20,-30,-63,-58,0,11,1
1,1496755682,656,1,-38,-70,-81,3,1,5
1,1496755682,656,2,-33,-79,-66,1,15,7
1,1496755682,656,3,-33,-74,-62,5,15,5
1,1496755682,656,4,-32,-87,-69,7,11,3
1,1496755682,656,5,-34,-69,-68,3,17,5
1,1496755682,656,6,-24,-67,-63,0,17,5
1,1496755682,656,7,-18,-81,-65,1,15,7
1,1496755682,656,8,-31,-53,-72,-4,17,7
1,1496755682,656,9,-25,-46,-70,1,13,7
1,1496755682,656,10,-31,-101,-71,9,11,3
1,1496755682,656,11,-40,-108,-69,5,15,0
1,1496755682,656,12,-33,-74,-61,7,9,5
1,1496755682,656,13,-23,-51,-57,9,13,1
1,1496755682,656,14,-30,-59,-57,3,18,3
1,1496755682,656,15,-23,-42,-45,0,18,9
1,1496755682,656,16,-7,-54,-101,-6,15,3
1,1496755682,656,17,0,-50,-72,3,18,13
1,1496755682,656,18,-28,-79,-60,1,15,9
1,1496755682,656,19,-27,-55,-78,3,15,9
1,1496755682,656,20,-21,-83,-65,0,15,3
1,1496755683,657,1,-28,-104,-55,1,15,3
1,1496755683,657,2,-32,-76,-83,1,15,7
1,1496755683,657,3,-28,-90,-64,5,9,5
1,1496755683,657,4,-33,-84,-67,3,13,5
1,1496755683,657,5,-12,-47,-17,0,132,-95
1,1496755683,657,6,-4,-97,-72,-23,39,-10
1,1496755683,657,7,95,-106,-117,145,-27,30
1,1496755683,657,8,-29,-73,-70,1,18,1
1,1496755683,657,9,-17,-67,-70,0,17,5
1,1496755683,657,10,-18,-73,-68,1,15,7
1,1496755683,657,11,-19,-75,-70,1,17,7
1,1496755683,657,12,-16,-81,-73,1,17,1
1,1496755683,657,13,-21,-83,-77,1,17,3
1,1496755683,657,14,-14,-74,-65,1,15,3
1,1496755683,657,15,-17,-79,-67,1,17,3
1,1496755683,657,16,-19,-73,-65,0,17,5
1,1496755683,657,17,-16,-69,-60,1,17,7
1,1496755683,657,18,-18,-77,-72,0,17,3
1,1496755683,657,19,-17,-76,-70,0,18,5
1,1496755683,657,20,-20,-77,-63,0,20,5
1,1496755684,658,1,-17,-81,-59,0,15,7
1,1496755684,658,2,-16,-85,-59,1,17,3
1,1496755684,658,3,-18,-79,-71,0,13,9
1,1496755684,658,4,-14,-78,-60,0,13,7
1,1496755684,658,5,-16,-72,-71,1,17,1
1,1496755684,658,6,-18,-76,-65,0,17,3
1,1496755684,658,7,-11,-76,-66,0,15,5
1,1496755684,658,8,-5,-83,-64,0,13,7
1,1496755684,658,9,-3,-82,-56,0,15,3
1,1496755684,658,10,-9,-82,-59,0,11,1
1,1496755684,658,11,-11,-91,-51,0,11,3
1,1496755684,658,12,-9,-87,-56,0,11,3
1,1496755684,658,13,-7,-87,-59,0,11,3
1,1496755684,658,14,0,-89,-71,0,-8,-42
1,1496755684,658,15,-7,-82,-55,-4,11,1
1,1496755684,658,16,-14,-99,-58,0,9,0
1,1496755684,658,17,12,-98,-34,0,5,0
1,1496755684,658,18,-11,-84,-44,-2,7,0
1,1496755684,658,19,-6,-89,-46,0,11,0
1,1496755684,658,20,-3,-85,-50,5,9,0
1,1496755685,659,1,-2,-93,-49,0,5,0
1,1496755685,659,2,0,-86,-49,-10,5,0
1,1496755685,659,3,-6,-81,-47,0,5,0
1,1496755685,659,4,-1,-86,-52,3,5,0
1,1496755685,659,5,-7,-82,-65,-33,13,0
1,1496755685,659,6,-3,-92,-42,-2,3,0
1,1496755685,659,7,-13,-85,-44,-2,3,1
1,1496755685,659,8,-14,-90,-38,0,5,0
1,1496755685,659,9,-10,-94,-39,0,5,1
1,1496755685,659,10,-1,-91,-33,0,-2,0
1,1496755685,659,11,-9,-97,-40,0,3,0
1,1496755685,659,12,-14,-88,-44,-2,0,0
1,1496755685,659,13,-11,-94,-37,-4,1,0
1,1496755685,659,14,-4,-85,-40,0,0,0
1,1496755685,659,15,-11,-96,-45,0,1,0
1,1496755685,659,16,-9,-90,-41,0,3,0
1,1496755685,659,17,-8,-88,-40,0,0,0
1,1496755685,659,18,-19,-96,-36,0,0,0
1,1496755685,659,19,-13,-95,-35,0,0,0
1,1496755685,659,20,-9,-93,-41,0,0,0
1,1496755686,660,1,-6,-82,-30,0,-4,5
1,1496755686,660,2,-13,-85,-47,0,-2,0
1,1496755686,660,3,-10,-84,-41,0,0,-2
1,1496755686,660,4,-10,-86,-43,0,0,0
1,1496755686,660,5,-12,-85,-37,0,0,0
1,1496755686,660,6,-16,-97,-42,0,0,0
1,1496755686,660,7,-6,-93,-41,0,0,0
1,1496755686,660,8,-10,-91,-36,0,0,0
1,1496755686,660,9,-18,-94,-43,0,1,0
1,1496755686,660,10,-7,-87,-42,-2,0,0
1,1496755686,660,11,-13,-93,-42,-2,1,0
1,1496755686,660,12,-12,-85,-47,-2,0,0
1,1496755686,660,13,-4,-93,-38,-2,3,-2
1,1496755686,660,14,-11,-95,-40,0,0,0
1,1496755686,660,15,-5,-93,-44,0,1,0
1,1496755686,660,16,-3,-89,-44,-2,1,0
1,1496755686,660,17,-11,-94,-50,-2,1,0
1,1496755686,660,18,-9,-89,-46,-2,0,0
1,1496755686,660,19,-4,-89,-46,-2,1,0
1,1496755686,660,20,-4,-94,-46,0,3,-2
1,1496755687,661,1,-9,-96,-49,0,1,0
1,1496755687,661,2,-6,-91,-47,0,1,0
1,1496755687,661,3,-10,-88,-47,-2,1,0
1,1496755687,661,4,-4,-87,-46,-2,0,0
1,1496755687,661,5,-6,-85,-36,-2,1,0
1,1496755687,661,6,-3,-84,-41,0,0,0
1,1496755687,661,7,-7,-100,-39,0,1,0
1,1496755687,661,8,-4,-90,-38,0,0,0
1,1496755687,661,9,-11,-100,-47,0,1,0
1,1496755687,661,10,-7,-107,-46,0,1,0
1,1496755687,661,11,-4,-98,-50,1,1,0
1,1496755687,661,12,0,-93,-36,0,0,0
1,1496755687,661,13,-17,-102,-57,-4,0,1
1,1496755687,661,14,1,-107,-44,0,-2,1
1,1496755687,661,15,-1,-103,-39,0,3,-2
1,1496755687,661,16,-16,-80,-61,-2,0,0
1,1496755687,661,17,-18,-105,-33,-10,7,0
1,1496755687,661,18,-6,-91,-56,5,0,0
1,1496755687,661,19,6,-93,-38,0,1,0
1,1496755687,661,20,-2,-75,-33,-2,5,-6
1,1496755688,662,1,-9,-105,-37,-12,5,-2
1,1496755688,662,2,-4,-112,-35,-8,0,0
1,1496755688,662,3,-9,-83,-39,0,-4,3
1,1496755688,662,4,-11,-102,-44,-4,-2,11
1,1496755688,662,5,-18,-92,-49,-6,3,7
1,1496755688,662,6,-36,-83,-71,-10,0,22
1,1496755688,662,7,-18,-78,-39,-2,-8,18
1,1496755688,662,8,-48,-95,-20,-36,34,0
1,1496755688,662,9,-37,-84,-48,-23,7,7
1,1496755688,662,10,-17,-81,-40,3,5,-4
1,1496755688,662,11,-23,-95,-50,0,0,-2
1,1496755688,662,12,-26,-82,-44,5,-2,-2
1,1496755688,662,13,-27,-86,-42,-4,3,0
1,1496755688,662,14,-22,-86,-44,0,1,-2
1,1496755688,662,15,-19,-79,-45,1,0,0
1,1496755688,662,16,-28,-89,-40,0,0,0
1,1496755688,662,17,-31,-83,-44,3,0,0
1,1496755688,662,18,-22,-83,-46,-14,15,-4
1,1496755688,662,19,-28,-83,-52,1,-4,1
1,1496755688,662,20,-23,-83,-36,1,0,0
1,1496755689,663,1,-26,-91,-44,0,1,0
1,1496755689,663,2,-26,-87,-44,0,1,0
1,1496755689,663,3,-27,-85,-48,-2,3,-2
1,1496755689,663,4,-26,-83,-47,0,5,-10
1,1496755689,663,5,-19,-87,-42,0,11,-19
1,1496755689,663,6,-22,-84,-33,-16,11,-8
1,1496755689,663,7,-15,-79,-40,-2,3,-8
1,1496755689,663,8,-33,-88,-45,96,-19,13
1,1496755689,663,9,-22,-89,-47,0,1,0
1,1496755689,663,10,-24,-87,-39,0,0,0
1,1496755689,663,11,-25,-91,-40,0,1,-2
1,1496755689,663,12,-22,-94,-47,0,1,-2
1,1496755689,663,13,-20,-87,-37,0,0,0
1,1496755689,663,14,-21,-84,-36,-2,0,0
1,1496755689,663,15,-18,-93,-41,0,0,-2
1,1496755689,663,16,-16,-95,-40,-2,0,0
1,1496755689,663,17,-14,-104,-40,0,1,0
1,1496755689,663,18,-7,-93,-37,0,0,1
1,1496755689,663,19,-17,-91,-38,-2,1,0
1,1496755689,663,20,-11,-103,-38,0,3,-4
1,1496755690,664,1,-9,-90,-36,-4,1,0
1,1496755690,664,2,-24,-67,-34,-14,7,-8
1,1496755690,664,3,-11,-89,-38,7,-8,0
1,1496755690,664,4,-20,-93,-39,-2,1,0
1,1496755690,664,5,-3,-93,-35,-4,0,0
1,1496755690,664,6,-5,-84,-40,0,-4,0
1,1496755690,664,7,-19,-94,-47,0,-4,0
1,1496755690,664,8,-20,-76,-44,-4,3,0
1,1496755690,664,9,-14,-89,-39,-6,1,1
1,1496755690,664,10,-9,-90,-37,-4,3,0
1,1496755690,664,11,-13,-78,-44,0,-2,0
1,1496755690,664,12,-13,-81,-43,0,0,0
1,1496755690,664,13,-17,-76,-47,0,0,0
1,1496755690,664,14,-17,-91,-35,0,5,0
1,1496755690,664,15,-8,-88,-36,0,1,0
1,1496755690,664,16,-18,-83,-40,1,0,-2
1,1496755690,664,17,-18,-88,-41,0,3,0
1,1496755690,664,18,-11,-83,-35,-4,3,0
1,1496755690,664,19,-10,-83,-40,-4,0,0
1,1496755690,664,20,-18,-85,-39,0,0,0
1,1496755691,665,1,-21,-91,-42,0,0,0
1,1496755691,665,2,-14,-95,-38,0,3,0
1,1496755691,665,3,-15,-82,-40,-2,0,0
1,1496755691,665,4,-12,-89,-46,1,-2,0
1,1496755691,665,5,-18,-91,-37,1,0,0
1,1496755691,665,6,-21,-101,-35,0,0,-2
1,1496755691,665,7,-15,-96,-35,1,0,0
1,1496755691,665,8,-14,-90,-46,-6,3,0
1,1496755691,665,9,-24,-102,-43,0,0,-2
1,1496755691,665,10,-19,-89,-45,-2,5,-2
1,1496755691,665,11,-19,-94,-45,-10,7,-2
1,1496755691,665,12,-22,-91,-39,-8,5,0
1,1496755691,665,13,-21,-81,-44,-8,3,0
1,1496755691,665,14,-13,-86,-27,1,0,1
1,1496755691,665,15,-17,-95,-42,3,-4,0
1,1496755691,665,16,-20,-91,-44,0,0,0
1,1496755691,665,17,-26,-77,-45,-12,3,3
1,1496755691,665,18,-21,-83,-36,-4,5,0
1,1496755691,665,19,-17,-92,-38,-14,7,0
1,1496755691,665,20,-23,-91,-46,-6,1,0
1,1496755692,666,1,-16,-82,-38,-2,3,0
1,1496755692,666,2,-19,-87,-35,0,0,0
1,1496755692,666,3,-19,-94,-44,3,1,0
1,1496755692,666,4,-16,-101,-51,0,1,-2
1,1496755692,666,5,-35,-88,-53,-4,5,0
1,1496755692,666,6,-20,-88,-38,0,1,-2
1,1496755692,666,7,-16,-78,-42,0,1,-4
