ID,timeStamp,packetNumber,sampleNumber,accX,accY,accZ,gyrX,gyrY,gyrZ
5,1496892446,800,1,-8,74,60,0,0,0
5,1496892446,800,2,-8,74,60,0,0,0
5,1496892446,800,3,-8,74,60,0,0,0
5,1496892446,800,4,-8,74,60,0,0,0
5,1496892446,800,5,-8,76,60,0,0,0
5,1496892446,800,6,-6,74,60,0,0,0
5,1496892446,800,7,-8,74,60,0,0,0
5,1496892446,800,8,-8,74,60,0,0,0
5,1496892446,800,9,-6,74,60,0,0,0
5,1496892446,800,10,-6,74,60,0,0,0
5,1496892446,800,11,-6,74,60,0,0,0
5,1496892446,800,12,-8,74,60,0,0,0
5,1496892446,800,13,-6,74,60,0,0,0
5,1496892446,800,14,-8,74,60,0,0,0
5,1496892446,800,15,-8,76,60,0,0,0
5,1496892446,800,16,-8,76,60,0,0,0
5,1496892446,800,17,-8,74,60,0,0,0
5,1496892446,800,18,-6,74,60,0,0,0
5,1496892446,800,19,-8,74,60,0,0,0
5,1496892446,800,20,-6,74,60,0,0,0
5,1496892447,801,1,-8,74,60,0,0,0
5,1496892447,801,2,-8,74,60,0,0,0
5,1496892447,801,3,-6,74,60,0,0,0
5,1496892447,801,4,-8,76,60,0,0,0
5,1496892447,801,5,-8,74,60,0,0,0
5,1496892447,801,6,-8,74,60,0,0,0
5,1496892447,801,7,-8,74,60,0,0,0
5,1496892447,801,8,-8,74,60,0,0,0
5,1496892447,801,9,-8,74,60,0,0,0
5,1496892447,801,10,-6,74,60,0,0,0
5,1496892447,801,11,-6,76,60,0,0,0
5,1496892447,801,12,-8,76,60,0,0,0
5,1496892447,801,13,-8,74,60,0,0,0
5,1496892447,801,14,-6,74,60,0,0,0
5,1496892447,801,15,-8,74,60,0,0,0
5,1496892447,801,16,-6,74,60,0,0,0
5,1496892447,801,17,-8,74,60,0,0,0
5,1496892447,801,18,-8,74,60,0,0,0
5,1496892447,801,19,-8,74,60,0,0,0
5,1496892447,801,20,-8,74,60,0,0,0
5,1496892448,802,1,-8,74,60,0,0,0
5,1496892448,802,2,-8,74,60,0,0,0
5,1496892448,802,3,-6,76,60,0,0,0
5,1496892448,802,4,-8,74,60,0,0,0
5,1496892448,802,5,-8,74,60,0,0,0
5,1496892448,802,6,-8,74,60,0,0,0
5,1496892448,802,7,-8,74,60,0,0,0
5,1496892448,802,8,-8,74,60,0,0,0
5,1496892448,802,9,-8,74,60,0,0,0
5,1496892448,802,10,-8,74,60,0,0,0
5,1496892448,802,11,-8,76,60,0,0,0
5,1496892448,802,12,-6,76,60,0,0,0
5,1496892448,802,13,-6,74,60,0,0,0
5,1496892448,802,14,-8,74,60,0,0,0
5,1496892448,802,15,-8,76,60,0,0,0
5,1496892448,802,16,-8,74,60,0,0,0
5,1496892448,802,17,-8,74,60,0,0,0
5,1496892448,802,18,-6,76,60,0,0,0
5,1496892448,802,19,-6,74,60,0,0,0
5,1496892448,802,20,-8,74,60,0,0,0
5,1496892449,803,1,-8,74,60,0,0,0
5,1496892449,803,2,-8,74,60,0,0,0
5,1496892449,803,3,-8,76,60,0,0,0
5,1496892449,803,4,-8,74,60,0,0,0
5,1496892449,803,5,-8,74,60,0,0,0
5,1496892449,803,6,-8,76,60,0,0,0
5,1496892449,803,7,-6,76,60,0,0,0
5,1496892449,803,8,-6,76,60,0,0,0
5,1496892449,803,9,-8,74,60,0,0,0
5,1496892449,803,10,-6,74,60,0,0,0
5,1496892449,803,11,-6,74,60,0,0,0
5,1496892449,803,12,-8,74,60,0,0,0
5,1496892449,803,13,-8,76,60,0,0,0
5,1496892449,803,14,-8,74,60,0,0,0
5,1496892449,803,15,-8,74,60,0,0,0
5,1496892449,803,16,-6,74,60,0,0,0
5,1496892449,803,17,-8,74,60,0,0,0
5,1496892449,803,18,-6,74,60,0,0,0
5,1496892449,803,19,-8,74,60,0,0,0
5,1496892449,803,20,-8,74,60,0,0,0
5,1496892450,804,1,-8,74,60,0,0,0
5,1496892450,804,2,-8,74,60,0,0,0
5,1496892450,804,3,-8,74,60,0,0,0
5,1496892450,804,4,-8,74,60,0,0,0
5,1496892450,804,5,-6,76,60,0,0,0
5,1496892450,804,6,-6,74,60,0,0,0
5,1496892450,804,7,-6,74,60,0,0,0
5,1496892450,804,8,-8,74,60,0,0,0
5,1496892450,804,9,-6,74,60,0,0,0
5,1496892450,804,10,-8,74,60,0,0,0
5,1496892450,804,11,-8,74,60,0,0,0
5,1496892450,804,12,-8,74,60,0,0,0
5,1496892450,804,13,-8,74,60,0,0,0
5,1496892450,804,14,-6,76,60,0,0,0
5,1496892450,804,15,-6,74,60,0,0,0
5,1496892450,804,16,-6,76,60,0,0,0
5,1496892450,804,17,-8,74,60,0,0,0
5,1496892450,804,18,-6,76,60,0,0,0
5,1496892450,804,19,-6,74,60,0,0,0
5,1496892450,804,20,-8,76,60,0,0,0
5,1496892451,805,1,-8,74,60,0,0,0
5,1496892451,805,2,-8,76,60,0,0,0
5,1496892451,805,3,-8,74,60,0,0,0
5,1496892451,805,4,-8,74,60,0,0,0
5,1496892451,805,5,-8,74,60,0,0,0
5,1496892451,805,6,-6,74,60,0,0,0
5,1496892451,805,7,-8,74,60,0,0,0
5,1496892451,805,8,-8,74,60,0,0,0
5,1496892451,805,9,-8,74,60,0,0,0
5,1496892451,805,10,-8,76,60,0,0,0
5,1496892451,805,11,-8,76,60,0,0,0
5,1496892451,805,12,-8,74,60,0,0,0
5,1496892451,805,13,-8,74,60,0,0,0
5,1496892451,805,14,-8,74,60,0,0,0
5,1496892451,805,15,-8,76,60,0,0,0
5,1496892451,805,16,-8,74,60,0,0,0
5,1496892451,805,17,-8,74,60,0,0,0
5,1496892451,805,18,-8,74,60,0,0,0
5,1496892451,805,19,-8,74,60,0,0,0
5,1496892451,805,20,-8,74,60,0,0,0
5,1496892452,806,1,-8,74,60,0,0,0
5,1496892452,806,2,-8,74,60,0,0,0
5,1496892452,806,3,-6,74,60,0,0,0
5,1496892452,806,4,-6,74,60,0,0,0
5,1496892452,806,5,-8,74,60,0,0,0
5,1496892452,806,6,-8,76,60,0,0,0
5,1496892452,806,7,-8,74,60,0,0,0
5,1496892452,806,8,-8,74,60,0,0,0
5,1496892452,806,9,-6,76,60,0,0,0
5,1496892452,806,10,-6,74,60,0,0,0
5,1496892452,806,11,-6,74,60,0,0,0
5,1496892452,806,12,-6,74,60,0,0,0
5,1496892452,806,13,-8,74,60,0,0,0
5,1496892452,806,14,-8,74,60,0,0,0
5,1496892452,806,15,-8,74,60,0,0,0
5,1496892452,806,16,-8,76,60,0,0,0
5,1496892452,806,17,-8,74,60,0,0,0
5,1496892452,806,18,-6,74,60,0,0,0
5,1496892452,806,19,-8,74,60,0,0,0
5,1496892452,806,20,-6,74,60,0,0,0
5,1496892453,807,1,-8,76,60,0,0,0
5,1496892453,807,2,-8,74,60,0,0,0
5,1496892453,807,3,-6,74,60,0,0,0
5,1496892453,807,4,-8,74,60,0,0,0
5,1496892453,807,5,-8,74,60,0,0,0
5,1496892453,807,6,-8,74,60,0,0,0
5,1496892453,807,7,-6,74,60,0,0,0
5,1496892453,807,8,-6,76,60,0,0,0
5,1496892453,807,9,-6,74,60,0,0,0
5,1496892453,807,10,-8,74,60,0,0,0
5,1496892453,807,11,-6,76,60,0,0,0
5,1496892453,807,12,-10,74,58,0,0,0
5,1496892453,807,13,-8,74,60,0,0,0
5,1496892453,807,14,-6,76,60,0,0,0
5,1496892453,807,15,-8,76,60,0,0,0
5,1496892453,807,16,-8,76,60,0,0,0
5,1496892453,807,17,-8,74,60,0,0,0
5,1496892453,807,18,-8,76,60,0,0,0
5,1496892453,807,19,-8,76,60,0,0,0
5,1496892453,807,20,-8,76,60,0,0,0
5,1496892454,808,1,-8,74,58,0,0,0
5,1496892454,808,2,-6,74,60,0,0,0
5,1496892454,808,3,-8,74,60,0,0,0
5,1496892454,808,4,-8,76,60,0,0,0
5,1496892454,808,5,-8,76,60,0,0,0
5,1496892454,808,6,-8,76,60,0,0,0
5,1496892454,808,7,-8,76,60,0,0,0
5,1496892454,808,8,-8,74,60,0,0,0
5,1496892454,808,9,-8,74,60,0,0,0
5,1496892454,808,10,-8,74,60,0,0,0
5,1496892454,808,11,-8,76,60,0,0,0
5,1496892454,808,12,-8,76,60,0,0,0
5,1496892454,808,13,-24,56,10,-6,-10,4
5,1496892454,808,14,2,74,72,8,-4,4
5,1496892454,808,15,-18,72,68,8,4,4
5,1496892454,808,16,4,72,48,0,2,2
5,1496892454,808,17,10,74,64,0,0,0
5,1496892454,808,18,-4,74,64,0,4,2
5,1496892454,808,19,0,74,60,0,0,0
5,1496892454,808,20,-2,74,56,0,0,0
5,1496892455,809,1,-12,76,62,0,0,0
5,1496892455,809,2,-8,76,60,0,0,0
5,1496892455,809,3,-6,74,60,0,0,0
5,1496892455,809,4,-12,74,60,0,0,0
5,1496892455,809,5,-8,76,62,0,0,0
5,1496892455,809,6,-8,74,58,0,0,0
5,1496892455,809,7,-10,76,60,0,0,0
5,1496892455,809,8,-8,76,60,0,0,0
5,1496892455,809,9,-6,74,60,0,0,0
5,1496892455,809,10,-6,76,60,0,0,0
5,1496892455,809,11,-8,76,60,0,0,0
5,1496892455,809,12,-8,76,60,0,0,0
5,1496892455,809,13,-6,76,60,0,0,0
5,1496892455,809,14,-6,74,60,0,0,0
5,1496892455,809,15,-6,74,60,0,0,0
5,1496892455,809,16,-8,74,60,0,0,0
5,1496892455,809,17,-18,50,58,16,-86,2
5,1496892455,809,18,-14,76,74,32,-4,18
5,1496892455,809,19,-16,78,54,-2,2,2
5,1496892455,809,20,-4,76,58,0,0,0
5,1496892456,810,1,-6,76,58,-4,0,0
5,1496892456,810,2,-6,76,56,-2,0,0
5,1496892456,810,3,-6,76,56,-2,0,0
5,1496892456,810,4,-6,76,58,0,0,0
5,1496892456,810,5,-4,76,56,2,0,2
5,1496892456,810,6,-6,76,56,0,0,0
5,1496892456,810,7,-6,76,58,0,0,0
5,1496892456,810,8,-6,76,58,0,0,0
5,1496892456,810,9,-6,76,58,0,0,0
5,1496892456,810,10,-6,76,58,0,0,0
5,1496892456,810,11,-6,76,56,0,0,0
5,1496892456,810,12,-6,78,56,0,0,0
5,1496892456,810,13,-6,76,58,0,0,0
5,1496892456,810,14,-6,78,58,0,0,0
5,1496892456,810,15,-6,78,58,0,0,0
5,1496892456,810,16,-6,78,56,0,0,0
5,1496892456,810,17,-6,78,58,0,0,0
5,1496892456,810,18,-6,78,58,0,0,0
5,1496892456,810,19,-6,78,58,0,0,0
5,1496892456,810,20,-6,78,58,0,0,0
5,1496892457,811,1,-4,78,58,0,0,0
5,1496892457,811,2,-6,78,58,0,0,0
5,1496892457,811,3,-6,78,58,0,0,2
5,1496892457,811,4,-6,76,56,0,0,0
5,1496892457,811,5,-6,78,56,0,0,0
5,1496892457,811,6,-6,78,58,0,0,0
5,1496892457,811,7,-6,78,56,0,0,0
5,1496892457,811,8,-6,78,56,0,0,0
5,1496892457,811,9,-6,78,56,0,0,0
5,1496892457,811,10,-6,78,58,0,0,0
5,1496892457,811,11,-6,78,56,0,0,0
5,1496892457,811,12,-6,78,56,0,0,0
5,1496892457,811,13,-6,78,58,0,0,0
5,1496892457,811,14,-6,78,58,0,0,0
5,1496892457,811,15,-6,78,56,0,0,0
5,1496892457,811,16,-6,78,56,0,0,0
5,1496892457,811,17,-6,78,56,0,0,0
5,1496892457,811,18,-6,78,58,0,0,0
5,1496892457,811,19,-6,78,56,0,0,0
5,1496892457,811,20,-6,78,58,0,0,0
5,1496892458,812,1,-4,78,56,0,0,0
5,1496892458,812,2,-6,78,56,0,0,0
5,1496892458,812,3,-4,78,58,0,0,0
5,1496892458,812,4,-6,78,58,0,0,0
5,1496892458,812,5,-6,78,56,0,0,0
5,1496892458,812,6,-6,78,56,0,0,0
5,1496892458,812,7,-6,78,56,0,0,0
5,1496892458,812,8,-4,78,56,0,0,0
5,1496892458,812,9,-6,78,56,0,0,0
5,1496892458,812,10,-4,78,56,0,0,0
5,1496892458,812,11,2,76,48,6,2,14
5,1496892458,812,12,4,84,28,70,-6,36
5,1496892458,812,13,32,-22,-102,148,-18,84
5,1496892458,812,14,-34,108,48,56,-250,0
5,1496892458,812,15,12,82,50,0,-14,0
5,1496892458,812,16,6,88,38,-2,6,0
5,1496892458,812,17,10,88,40,-2,10,0
5,1496892458,812,18,8,88,38,0,-14,2
5,1496892458,812,19,12,90,36,0,16,0
5,1496892458,812,20,6,88,38,0,12,0
5,1496892459,813,1,8,88,38,-2,14,0
5,1496892459,813,2,8,88,38,-2,14,0
5,1496892459,813,3,6,90,38,0,2,0
5,1496892459,813,4,8,90,38,0,0,0
5,1496892459,813,5,8,88,38,0,2,0
5,1496892459,813,6,6,88,38,0,2,0
5,1496892459,813,7,8,88,38,-2,4,0
5,1496892459,813,8,8,90,38,-2,4,0
5,1496892459,813,9,8,88,40,-2,2,0
5,1496892459,813,10,8,88,38,0,2,0
5,1496892459,813,11,8,88,38,0,0,0
5,1496892459,813,12,8,88,38,0,0,0
5,1496892459,813,13,6,88,38,0,0,0
5,1496892459,813,14,6,88,38,-2,2,0
5,1496892459,813,15,8,90,40,-2,4,0
5,1496892459,813,16,6,88,40,0,2,0
5,1496892459,813,17,8,88,40,0,0,0
5,1496892459,813,18,8,88,38,0,0,0
5,1496892459,813,19,8,88,38,0,0,0
5,1496892459,813,20,8,88,38,0,0,0
5,1496892460,814,1,8,88,38,0,0,0
5,1496892460,814,2,6,90,38,0,0,0
5,1496892460,814,3,8,88,38,0,0,0
5,1496892460,814,4,6,88,40,-2,0,0
5,1496892460,814,5,6,88,38,-2,0,0
5,1496892460,814,6,12,88,40,-2,20,0
5,1496892460,814,7,0,90,52,-18,60,-10
5,1496892460,814,8,-26,70,54,-124,118,-36
5,1496892460,814,9,-8,94,104,-118,18,-72
5,1496892460,814,10,16,64,-42,-90,4,-52
5,1496892460,814,11,4,54,66,0,-20,2
5,1496892460,814,12,-12,68,54,-4,0,0
5,1496892460,814,13,0,80,84,2,0,0
5,1496892460,814,14,-8,74,58,0,4,4
5,1496892460,814,15,-10,74,58,2,0,0
5,1496892460,814,16,-8,76,56,18,-38,16
5,1496892460,814,17,-2,76,48,40,-18,20
5,1496892460,814,18,-6,76,42,0,4,2
5,1496892460,814,19,-2,80,56,2,-34,16
5,1496892460,814,20,-2,78,58,0,0,0
5,1496892461,815,1,-6,78,56,-2,6,0
5,1496892461,815,2,-4,78,56,0,6,0
5,1496892461,815,3,-6,78,56,-2,6,0
5,1496892461,815,4,-4,78,56,0,0,2
5,1496892461,815,5,-6,78,56,0,2,2
5,1496892461,815,6,-4,78,56,0,-6,4
5,1496892461,815,7,-2,78,56,0,0,2
5,1496892461,815,8,-4,78,56,0,0,0
5,1496892461,815,9,-4,78,56,0,0,0
5,1496892461,815,10,-4,78,56,0,2,0
5,1496892461,815,11,-4,78,56,0,2,0
5,1496892461,815,12,-4,78,58,0,0,2
5,1496892461,815,13,-4,78,56,0,0,2
5,1496892461,815,14,-4,78,58,0,-2,4
5,1496892461,815,15,-2,78,56,0,-2,0
5,1496892461,815,16,-2,78,56,0,0,0
5,1496892461,815,17,-2,78,56,0,0,0
5,1496892461,815,18,-2,78,56,0,0,0
5,1496892461,815,19,-2,78,56,0,0,0
5,1496892461,815,20,-2,78,56,0,0,0
5,1496892461,816,1,-2,78,56,0,0,0
5,1496892461,816,2,-2,78,56,0,0,0
5,1496892461,816,3,-2,78,56,0,0,0
5,1496892461,816,4,-4,78,56,0,0,0
5,1496892461,816,5,-2,78,56,0,0,0
5,1496892461,816,6,-2,78,56,0,0,0
5,1496892461,816,7,-2,78,56,0,0,0
5,1496892461,816,8,-2,78,56,0,0,0
5,1496892461,816,9,-2,78,56,0,0,0
5,1496892461,816,10,-2,78,56,-2,4,0
5,1496892461,816,11,-4,78,56,0,0,0
5,1496892461,816,12,-2,78,56,0,0,0
5,1496892461,816,13,0,78,50,6,0,6
5,1496892461,816,14,2,80,-40,154,-182,114
5,1496892461,816,15,130,88,148,128,-250,106
5,1496892461,816,16,26,92,68,0,-10,-2
5,1496892461,816,17,20,92,36,6,-24,0
5,1496892461,816,18,20,90,34,0,-8,2
5,1496892461,816,19,22,90,34,4,-20,4
5,1496892461,816,20,22,90,30,0,0,0
5,1496892462,817,1,22,90,30,0,2,0
5,1496892462,817,2,22,90,30,0,4,0
5,1496892462,817,3,22,90,30,-2,4,0
5,1496892462,817,4,22,90,32,0,2,0
5,1496892462,817,5,20,90,32,0,0,0
5,1496892462,817,6,20,90,30,0,-2,0
5,1496892462,817,7,20,88,30,0,2,0
5,1496892462,817,8,20,88,30,0,0,0
5,1496892462,817,9,22,90,30,0,0,0
5,1496892462,817,10,22,90,30,0,2,0
5,1496892462,817,11,22,90,30,0,0,0
5,1496892462,817,12,22,90,30,0,2,0
5,1496892462,817,13,20,90,30,0,2,0
5,1496892462,817,14,20,90,30,0,2,0
5,1496892462,817,15,20,90,30,0,0,0
5,1496892462,817,16,20,90,30,0,0,0
5,1496892462,817,17,22,90,30,0,0,0
5,1496892462,817,18,20,90,32,0,0,0
5,1496892462,817,19,20,90,30,0,0,0
5,1496892462,817,20,20,88,30,0,0,0
5,1496892463,818,1,20,90,30,0,2,0
5,1496892463,818,2,20,90,30,0,0,0
5,1496892463,818,3,20,90,32,0,2,0
5,1496892463,818,4,20,90,30,0,4,0
5,1496892463,818,5,20,90,30,0,2,0
5,1496892463,818,6,20,90,30,0,2,0
5,1496892463,818,7,20,90,30,0,2,0
5,1496892463,818,8,20,90,32,0,0,0
5,1496892463,818,9,20,90,32,0,0,0
5,1496892463,818,10,20,90,32,0,0,0
5,1496892463,818,11,20,90,30,0,2,0
5,1496892463,818,12,20,90,32,0,0,0
5,1496892463,818,13,20,90,32,-2,2,0
5,1496892463,818,14,22,92,32,-4,12,-6
5,1496892463,818,15,20,90,38,-8,10,-14
5,1496892463,818,16,16,90,36,-22,52,-16
5,1496892463,818,17,-2,102,48,-76,202,-42
5,1496892463,818,18,-8,70,62,-164,88,-46
5,1496892463,818,19,22,100,68,-86,2,-40
5,1496892463,818,20,150,114,-90,-6,-172,-6
5,1496892464,819,1,28,72,76,4,-2,2
5,1496892464,819,2,0,76,66,0,10,6
5,1496892464,819,3,-2,76,66,6,0,4
5,1496892464,819,4,0,74,56,-4,2,0
5,1496892464,819,5,-2,76,62,0,0,0
5,1496892464,819,6,4,74,60,0,0,0
5,1496892464,819,7,-4,76,60,0,2,0
5,1496892464,819,8,-2,76,58,0,0,0
5,1496892464,819,9,0,76,60,0,0,0
5,1496892464,819,10,-2,74,58,0,0,0
5,1496892464,819,11,-4,76,60,0,0,0
5,1496892464,819,12,-2,76,60,0,0,0
5,1496892464,819,13,-2,76,60,0,0,0
5,1496892464,819,14,-2,76,60,0,0,0
5,1496892464,819,15,-2,76,60,0,0,0
5,1496892464,819,16,-2,76,60,0,0,0
5,1496892464,819,17,-2,76,58,0,0,0
5,1496892464,819,18,12,72,56,0,2,2
5,1496892464,819,19,-2,76,60,0,2,0
5,1496892464,819,20,-2,76,60,0,0,0
5,1496892465,820,1,0,74,56,0,2,4
5,1496892465,820,2,-4,76,60,2,0,2
5,1496892465,820,3,-2,76,58,2,0,0
5,1496892465,820,4,-2,76,62,0,0,0
5,1496892465,820,5,-2,76,58,0,0,0
5,1496892465,820,6,-2,76,56,0,0,0
5,1496892465,820,7,-2,76,62,2,0,2
5,1496892465,820,8,0,76,56,2,0,2
5,1496892465,820,9,0,76,56,8,0,4
5,1496892465,820,10,-2,78,60,0,2,2
5,1496892465,820,11,0,78,58,0,0,0
5,1496892465,820,12,0,78,56,0,0,0
5,1496892465,820,13,0,78,58,0,0,0
5,1496892465,820,14,0,78,58,0,0,0
5,1496892465,820,15,0,78,58,0,0,0
5,1496892465,820,16,-2,78,58,0,0,0
5,1496892465,820,17,0,78,56,0,0,0
5,1496892465,820,18,0,78,54,0,2,2
5,1496892465,820,19,0,76,56,4,2,10
5,1496892465,820,20,18,76,10,34,2,22
5,1496892466,821,1,16,90,10,24,-36,0
5,1496892466,821,2,16,80,2,40,-56,2
5,1496892466,821,3,20,88,20,-4,-10,0
5,1496892466,821,4,28,90,30,0,-20,0
5,1496892466,821,5,12,86,22,6,-42,16
5,1496892466,821,6,30,90,24,2,-22,0
5,1496892466,821,7,30,90,24,0,4,0
5,1496892466,821,8,30,90,24,0,0,0
5,1496892466,821,9,28,88,26,0,2,0
5,1496892466,821,10,28,90,26,0,8,0
5,1496892466,821,11,28,90,26,0,0,0
5,1496892466,821,12,28,90,26,0,0,0
5,1496892466,821,13,28,88,24,0,0,0
5,1496892466,821,14,28,88,24,0,0,0
5,1496892466,821,15,28,90,26,0,0,0
5,1496892466,821,16,28,90,26,0,2,0
5,1496892466,821,17,28,90,24,0,2,0
5,1496892466,821,18,28,90,24,0,0,0
5,1496892466,821,19,28,90,24,0,0,0
5,1496892466,821,20,28,90,24,0,0,0
5,1496892467,822,1,28,90,24,0,0,0
5,1496892467,822,2,28,90,24,0,0,0
5,1496892467,822,3,28,90,26,0,0,0
5,1496892467,822,4,28,90,26,0,0,0
5,1496892467,822,5,28,90,24,0,0,0
5,1496892467,822,6,28,88,24,0,0,0
5,1496892467,822,7,28,90,24,0,0,0
5,1496892467,822,8,28,90,24,0,2,0
5,1496892467,822,9,28,90,24,0,0,0
5,1496892467,822,10,28,90,26,0,0,0
5,1496892467,822,11,28,90,26,0,2,0
5,1496892467,822,12,28,90,24,0,0,0
5,1496892467,822,13,28,90,24,0,0,0
5,1496892467,822,14,28,90,24,0,-2,0
5,1496892467,822,15,28,90,26,0,0,0
5,1496892467,822,16,28,90,24,0,0,0
5,1496892467,822,17,28,90,24,0,0,0
5,1496892467,822,18,28,90,24,0,2,0
5,1496892467,822,19,28,90,26,-2,6,0
5,1496892467,822,20,28,90,28,-8,20,-2
5,1496892468,823,1,46,98,48,-96,76,-2
5,1496892468,823,2,26,94,82,-112,90,-6
5,1496892468,823,3,22,82,74,-190,50,-8
5,1496892468,823,4,198,-144,198,20,42,-14
5,1496892468,823,5,178,94,6,-98,28,22
5,1496892468,823,6,20,68,8,-2,-28,-10
5,1496892468,823,7,12,80,76,0,4,4
5,1496892468,823,8,14,76,54,0,0,2
5,1496892468,823,9,14,78,54,-2,2,0
5,1496892468,823,10,8,78,58,0,0,0
5,1496892468,823,11,18,76,54,0,2,0
5,1496892468,823,12,8,78,56,0,0,0
5,1496892468,823,13,10,78,58,0,0,0
5,1496892468,823,14,12,78,58,0,0,0
5,1496892468,823,15,10,78,58,0,0,0
5,1496892468,823,16,10,78,58,0,0,0
5,1496892468,823,17,12,76,56,0,0,0
5,1496892468,823,18,12,76,56,0,0,0
5,1496892468,823,19,12,78,56,0,0,0
5,1496892468,823,20,12,78,56,0,0,0
5,1496892469,824,1,12,78,56,0,0,0
5,1496892469,824,2,12,78,56,0,0,0
5,1496892469,824,3,12,74,58,-2,0,0
5,1496892469,824,4,12,78,56,0,0,0
5,1496892469,824,5,12,78,58,0,0,2
5,1496892469,824,6,10,78,58,0,0,0
5,1496892469,824,7,12,78,56,0,0,0
5,1496892469,824,8,12,78,56,4,0,2
5,1496892469,824,9,12,78,56,0,0,0
5,1496892469,824,10,12,78,54,2,0,0
5,1496892469,824,11,12,78,56,0,0,0
5,1496892469,824,12,12,78,54,0,0,0
5,1496892469,824,13,12,78,54,4,0,2
5,1496892469,824,14,12,78,54,6,0,2
5,1496892469,824,15,12,78,54,0,0,2
5,1496892469,824,16,12,78,54,0,0,2
5,1496892469,824,17,12,78,52,2,0,2
5,1496892469,824,18,12,80,54,4,0,2
5,1496892469,824,19,12,80,54,0,2,2
5,1496892469,824,20,12,80,54,0,0,2
5,1496892470,825,1,12,80,54,0,0,2
5,1496892470,825,2,12,80,54,0,0,2
5,1496892470,825,3,12,80,52,0,0,0
5,1496892470,825,4,12,80,54,2,0,2
5,1496892470,825,5,12,80,52,0,0,0
5,1496892470,825,6,12,80,52,0,0,0
5,1496892470,825,7,12,80,50,6,0,2
5,1496892470,825,8,12,80,46,10,0,2
5,1496892470,825,9,12,82,44,18,0,4
5,1496892470,825,10,14,82,50,18,-2,4
5,1496892470,825,11,16,84,54,18,0,2
5,1496892470,825,12,14,84,50,22,0,4
5,1496892470,825,13,12,86,48,22,-12,4
5,1496892470,825,14,16,86,46,4,-4,2
5,1496892470,825,15,16,86,42,-2,2,0
5,1496892470,825,16,16,84,42,0,0,0
5,1496892470,825,17,14,86,44,0,-2,0
5,1496892470,825,18,16,86,42,0,0,0
5,1496892470,825,19,16,86,42,0,-2,2
5,1496892470,825,20,16,86,42,0,0,0
5,1496892471,826,1,16,84,42,0,-2,2
5,1496892471,826,2,16,86,38,6,-8,2
5,1496892471,826,3,16,86,36,14,-18,4
5,1496892471,826,4,18,86,40,12,-18,4
5,1496892471,826,5,18,88,42,2,-6,2
5,1496892471,826,6,20,88,38,0,0,0
5,1496892471,826,7,18,86,38,0,0,0
5,1496892471,826,8,20,86,38,0,-2,2
5,1496892471,826,9,20,88,38,0,-2,2
5,1496892471,826,10,20,88,38,0,0,0
5,1496892471,826,11,20,86,38,0,0,0
5,1496892471,826,12,20,88,38,0,-4,2
5,1496892471,826,13,20,88,36,0,-2,2
5,1496892471,826,14,20,88,36,0,-4,2
5,1496892471,826,15,20,88,36,2,-6,2
5,1496892471,826,16,22,86,38,0,-2,2
5,1496892471,826,17,22,88,36,0,-2,0
5,1496892471,826,18,22,88,36,0,0,0
5,1496892471,826,19,22,88,36,0,0,0
5,1496892471,826,20,22,88,36,0,0,0
5,1496892472,827,1,22,88,38,-4,8,0
5,1496892472,827,2,22,88,36,-4,8,0
5,1496892472,827,3,20,88,36,-2,4,0
5,1496892472,827,4,20,86,38,-2,2,0
5,1496892472,827,5,22,88,38,-2,4,0
5,1496892472,827,6,20,88,38,-6,10,-2
5,1496892472,827,7,18,86,40,-10,12,-4
5,1496892472,827,8,20,86,40,-12,6,0
5,1496892472,827,9,18,86,44,-16,4,-2
5,1496892472,827,10,20,84,42,-20,6,0
5,1496892472,827,11,20,84,40,-16,6,0
5,1496892472,827,12,18,84,44,-14,4,0
5,1496892472,827,13,18,84,44,-12,4,0
5,1496892472,827,14,18,84,50,-10,2,0
5,1496892472,827,15,16,84,48,-12,4,0
5,1496892472,827,16,18,84,54,-18,4,0
5,1496892472,827,17,18,82,52,-26,6,0
5,1496892472,827,18,12,80,36,-12,2,-2
5,1496892472,827,19,16,80,52,-6,2,0
5,1496892472,827,20,16,80,52,-2,2,0
5,1496892473,828,1,16,80,52,0,2,0
5,1496892473,828,2,16,80,52,0,2,0
5,1496892473,828,3,14,80,52,0,2,0
5,1496892473,828,4,16,80,52,0,2,0
5,1496892473,828,5,16,80,52,-2,2,0
5,1496892473,828,6,16,80,52,-2,0,0
5,1496892473,828,7,16,80,52,0,2,0
5,1496892473,828,8,16,80,52,0,0,0
5,1496892473,828,9,14,80,52,0,2,0
5,1496892473,828,10,14,80,52,0,0,0
5,1496892473,828,11,16,80,52,0,0,0
5,1496892473,828,12,16,80,52,0,2,0
5,1496892473,828,13,14,80,52,0,0,0
5,1496892473,828,14,14,80,52,0,0,0
5,1496892473,828,15,16,80,52,0,0,2
5,1496892473,828,16,16,80,52,0,0,0
5,1496892473,828,17,16,80,52,0,0,0
5,1496892473,828,18,16,80,52,0,0,0
5,1496892473,828,19,16,80,52,0,2,0
5,1496892473,828,20,16,80,52,0,0,0
5,1496892474,829,1,14,80,52,0,0,0
5,1496892474,829,2,14,80,52,0,0,0
5,1496892474,829,3,14,80,52,0,0,0
5,1496892474,829,4,16,80,52,0,0,0
5,1496892474,829,5,16,80,52,0,0,0
5,1496892474,829,6,14,80,52,0,0,0
5,1496892474,829,7,16,80,52,0,0,0
5,1496892474,829,8,16,80,52,0,0,0
5,1496892474,829,9,14,80,52,0,0,0
5,1496892474,829,10,16,80,52,0,0,0
5,1496892474,829,11,14,80,52,0,0,0
5,1496892474,829,12,14,80,52,0,0,0
5,1496892474,829,13,14,80,52,0,0,0
5,1496892474,829,14,16,80,52,0,0,0
5,1496892474,829,15,14,80,52,0,0,0
5,1496892474,829,16,16,80,52,0,0,0
5,1496892474,829,17,14,80,52,0,0,0
5,1496892474,829,18,16,80,52,0,0,0
5,1496892474,829,19,16,80,52,0,0,0
5,1496892474,829,20,16,80,50,0,0,0
5,1496892475,830,1,16,80,50,4,0,0
5,1496892475,830,2,16,82,50,10,0,2
5,1496892475,830,3,16,80,48,8,0,2
5,1496892475,830,4,16,82,48,8,0,2
5,1496892475,830,5,16,82,48,8,0,2
5,1496892475,830,6,16,84,44,8,0,2
5,1496892475,830,7,16,84,48,6,0,2
5,1496892475,830,8,14,84,42,8,2,2
5,1496892475,830,9,16,84,46,8,0,2
5,1496892475,830,10,16,84,46,2,0,0
5,1496892475,830,11,16,84,44,0,0,0
5,1496892475,830,12,16,84,46,0,0,0
5,1496892475,830,13,16,84,44,0,0,0
5,1496892475,830,14,16,84,44,4,0,0
5,1496892475,830,15,16,86,40,10,-8,2
5,1496892475,830,16,16,86,42,8,-4,2
5,1496892475,830,17,18,86,42,2,0,2
5,1496892475,830,18,18,86,42,0,0,0
5,1496892475,830,19,18,86,42,0,0,0
5,1496892475,830,20,18,86,40,2,-4,2
5,1496892476,831,1,18,86,42,2,-2,0
5,1496892476,831,2,18,86,42,0,0,0
5,1496892476,831,3,18,86,40,0,0,0
5,1496892476,831,4,18,86,40,0,0,0
5,1496892476,831,5,18,86,40,0,0,0
5,1496892476,831,6,18,86,40,0,0,0
5,1496892476,831,7,18,86,40,0,0,0
5,1496892476,831,8,18,86,42,0,0,0
5,1496892476,831,9,18,86,40,0,0,0
5,1496892476,831,10,18,86,40,0,0,0
5,1496892476,831,11,20,86,40,0,0,0
5,1496892476,831,12,18,86,40,0,0,0
5,1496892476,831,13,20,86,40,0,-2,0
5,1496892476,831,14,18,86,40,0,0,0
5,1496892476,831,15,18,86,40,0,0,0
5,1496892476,831,16,18,86,40,0,0,0
5,1496892476,831,17,18,86,40,-2,2,0
5,1496892476,831,18,20,86,40,-2,4,0
5,1496892476,831,19,18,86,40,-4,4,0
5,1496892476,831,20,18,86,40,-2,2,0
5,1496892476,832,1,18,86,40,0,0,0
5,1496892476,832,2,18,86,42,0,2,0
5,1496892476,832,3,18,86,42,-4,6,0
5,1496892476,832,4,18,86,40,-4,6,0
5,1496892476,832,5,18,86,46,-6,4,0
5,1496892476,832,6,18,86,38,-4,2,0
5,1496892476,832,7,18,86,46,-6,2,0
5,1496892476,832,8,18,84,42,-10,2,0
5,1496892476,832,9,18,84,48,-14,2,0
5,1496892476,832,10,16,84,46,-20,2,-2
5,1496892476,832,11,16,82,46,-16,2,0
5,1496892476,832,12,14,84,48,-20,4,0
5,1496892476,832,13,16,82,50,-28,6,0
5,1496892476,832,14,12,84,28,-20,2,0
5,1496892476,832,15,14,80,50,-4,2,0
5,1496892476,832,16,16,80,50,-2,0,0
5,1496892476,832,17,16,80,50,0,0,0
5,1496892476,832,18,16,80,52,0,0,0
5,1496892476,832,19,16,80,52,0,0,0
5,1496892476,832,20,14,80,52,-2,0,0
5,1496892477,833,1,14,80,52,0,0,0
5,1496892477,833,2,16,80,52,-2,0,0
5,1496892477,833,3,14,80,52,0,0,0
5,1496892477,833,4,14,80,52,0,0,0
5,1496892477,833,5,14,80,52,0,0,0
5,1496892477,833,6,14,80,52,0,0,0
5,1496892477,833,7,14,80,52,0,0,0
5,1496892477,833,8,16,80,52,0,0,0
5,1496892477,833,9,16,80,52,0,0,0
5,1496892477,833,10,16,80,52,0,0,0
5,1496892477,833,11,14,80,52,0,0,0
5,1496892477,833,12,14,80,52,0,0,0
5,1496892477,833,13,14,80,52,0,0,0
5,1496892477,833,14,16,80,52,0,0,0
5,1496892477,833,15,14,80,52,0,0,0
5,1496892477,833,16,14,80,52,0,0,0
5,1496892477,833,17,14,80,52,0,0,0
5,1496892477,833,18,16,80,52,0,0,0
5,1496892477,833,19,14,80,52,0,0,0
5,1496892477,833,20,14,80,52,0,0,2
5,1496892478,834,1,16,80,52,2,0,2
5,1496892478,834,2,14,80,50,6,0,2
5,1496892478,834,3,16,80,50,10,0,2
5,1496892478,834,4,14,82,46,14,0,2
5,1496892478,834,5,16,82,50,14,0,2
5,1496892478,834,6,16,82,48,8,0,2
5,1496892478,834,7,16,84,50,4,0,0
5,1496892478,834,8,16,82,46,2,0,0
5,1496892478,834,9,16,84,44,2,0,2
5,1496892478,834,10,16,84,42,6,0,2
5,1496892478,834,11,16,84,46,12,0,2
5,1496892478,834,12,18,84,46,12,0,2
5,1496892478,834,13,18,86,46,10,-8,2
5,1496892478,834,14,18,86,44,4,-4,2
5,1496892478,834,15,18,86,40,4,-6,2
5,1496892478,834,16,18,86,42,2,-4,2
5,1496892478,834,17,18,86,40,2,-2,2
5,1496892478,834,18,18,86,42,2,-6,2
5,1496892478,834,19,20,86,40,0,0,0
5,1496892478,834,20,20,86,40,0,-2,0
5,1496892479,835,1,20,86,40,0,0,0
5,1496892479,835,2,20,86,40,0,0,0
5,1496892479,835,3,20,86,40,0,0,0
5,1496892479,835,4,20,86,38,0,2,0
5,1496892479,835,5,20,86,40,0,2,0
5,1496892479,835,6,20,86,40,0,2,0
5,1496892479,835,7,20,86,40,0,0,0
5,1496892479,835,8,20,86,40,0,0,0
5,1496892479,835,9,20,86,40,0,0,0
5,1496892479,835,10,20,86,40,0,0,0
5,1496892479,835,11,20,86,40,-2,2,0
5,1496892479,835,12,20,86,40,-2,2,0
5,1496892479,835,13,18,86,40,-4,6,0
5,1496892479,835,14,18,86,40,-6,8,0
5,1496892479,835,15,18,86,42,-8,10,-2
5,1496892479,835,16,16,86,38,-6,4,0
5,1496892479,835,17,18,86,44,-8,2,0
5,1496892479,835,18,16,86,44,-10,4,0
5,1496892479,835,19,18,84,46,-20,4,0
5,1496892479,835,20,16,84,50,-28,2,0
5,1496892480,836,1,16,82,46,-30,4,-2
5,1496892480,836,2,16,80,48,-26,4,0
5,1496892480,836,3,12,80,44,-10,0,-2
5,1496892480,836,4,16,80,50,-6,2,0
5,1496892480,836,5,16,80,52,-2,2,0
5,1496892480,836,6,16,80,52,0,0,0
5,1496892480,836,7,16,80,52,0,2,0
5,1496892480,836,8,16,80,52,0,0,0
5,1496892480,836,9,14,80,52,0,0,0
5,1496892480,836,10,14,80,52,0,0,0
5,1496892480,836,11,14,80,52,0,2,0
5,1496892480,836,12,14,80,52,0,0,0
5,1496892480,836,13,14,80,52,0,0,0
5,1496892480,836,14,14,80,52,0,0,0
5,1496892480,836,15,14,80,52,0,0,0
5,1496892480,836,16,14,80,52,0,0,0
5,1496892480,836,17,16,80,52,0,0,0
5,1496892480,836,18,16,80,52,0,0,0
5,1496892480,836,19,16,80,52,0,0,0
5,1496892480,836,20,16,80,52,0,0,2
5,1496892481,837,1,14,80,52,0,0,0
5,1496892481,837,2,16,80,52,0,0,0
5,1496892481,837,3,14,80,52,0,0,0
5,1496892481,837,4,14,80,52,0,0,0
5,1496892481,837,5,14,80,52,0,0,0
5,1496892481,837,6,14,80,52,0,0,0
5,1496892481,837,7,16,80,52,0,0,0
5,1496892481,837,8,16,80,52,0,0,0
5,1496892481,837,9,14,80,50,0,0,0
5,1496892481,837,10,16,80,52,0,0,0
5,1496892481,837,11,16,80,52,0,0,2
5,1496892481,837,12,14,80,50,2,0,2
5,1496892481,837,13,14,80,50,4,0,2
5,1496892481,837,14,16,80,52,2,0,0
5,1496892481,837,15,16,80,48,4,0,0
5,1496892481,837,16,16,80,52,8,0,2
5,1496892481,837,17,16,82,50,8,0,2
5,1496892481,837,18,16,82,48,4,0,2
5,1496892481,837,19,16,82,48,4,0,2
5,1496892481,837,20,16,82,42,12,0,2
5,1496892482,838,1,16,82,50,16,0,2
5,1496892482,838,2,16,84,50,10,0,2
5,1496892482,838,3,16,84,44,8,-4,2
5,1496892482,838,4,16,84,44,10,-10,2
5,1496892482,838,5,18,84,44,4,-2,2
5,1496892482,838,6,18,86,42,4,-2,2
5,1496892482,838,7,18,86,40,4,-4,2
5,1496892482,838,8,18,86,42,2,-2,2
5,1496892482,838,9,18,86,42,2,-2,0
5,1496892482,838,10,18,86,42,2,-4,0
5,1496892482,838,11,20,86,40,2,-6,2
5,1496892482,838,12,20,86,40,2,-4,2
5,1496892482,838,13,20,86,40,0,0,0
5,1496892482,838,14,20,86,40,0,0,0
5,1496892482,838,15,20,86,40,0,0,0
5,1496892482,838,16,20,86,40,0,2,0
5,1496892482,838,17,20,86,38,0,0,0
5,1496892482,838,18,20,86,40,0,0,0
5,1496892482,838,19,20,86,40,-2,2,0
5,1496892482,838,20,20,86,40,-2,2,0
5,1496892483,839,1,20,86,40,-2,2,0
5,1496892483,839,2,20,86,40,0,2,0
5,1496892483,839,3,20,86,40,0,2,0
5,1496892483,839,4,20,86,40,0,2,0
5,1496892483,839,5,18,86,42,0,2,0
5,1496892483,839,6,20,86,42,-2,6,0
5,1496892483,839,7,18,86,42,-8,6,0
5,1496892483,839,8,20,86,46,-16,14,-4
5,1496892483,839,9,20,84,48,-18,6,0
5,1496892483,839,10,18,84,46,-14,4,0
5,1496892483,839,11,18,84,44,-16,4,0
5,1496892483,839,12,16,82,46,-22,4,0
5,1496892483,839,13,18,82,52,-28,6,-2
5,1496892483,839,14,16,78,18,-34,10,-2
5,1496892483,839,15,18,80,52,-6,2,0
5,1496892483,839,16,16,80,52,-4,2,0
5,1496892483,839,17,16,80,48,0,0,0
5,1496892483,839,18,20,78,52,2,2,4
5,1496892483,839,19,14,80,52,0,2,0
5,1496892483,839,20,16,80,52,0,0,0
5,1496892484,840,1,16,80,52,0,0,0
5,1496892484,840,2,16,80,54,-2,2,0
5,1496892484,840,3,16,80,52,-2,2,0
5,1496892484,840,4,14,80,52,0,2,0
5,1496892484,840,5,14,78,52,0,0,0
5,1496892484,840,6,14,80,52,0,2,0
5,1496892484,840,7,14,80,52,0,2,0
5,1496892484,840,8,14,80,52,0,0,0
5,1496892484,840,9,16,80,52,0,2,0
5,1496892484,840,10,16,78,52,0,0,0
5,1496892484,840,11,16,78,52,0,0,0
5,1496892484,840,12,14,80,52,0,2,0
5,1496892484,840,13,16,80,52,0,0,0
5,1496892484,840,14,16,80,52,0,2,2
5,1496892484,840,15,14,80,52,0,0,0
5,1496892484,840,16,16,80,52,0,0,0
5,1496892484,840,17,16,80,52,0,0,0
5,1496892484,840,18,16,80,52,0,0,0
5,1496892484,840,19,16,80,52,0,0,0
5,1496892484,840,20,16,80,50,0,0,0
5,1496892485,841,1,16,80,52,0,0,0
5,1496892485,841,2,16,80,52,0,0,0
5,1496892485,841,3,16,80,52,0,2,0
5,1496892485,841,4,14,80,52,0,0,0
5,1496892485,841,5,16,80,52,0,0,0
5,1496892485,841,6,16,80,50,0,0,0
5,1496892485,841,7,14,80,50,2,0,0
5,1496892485,841,8,16,80,50,8,0,2
5,1496892485,841,9,16,82,48,10,0,2
5,1496892485,841,10,16,82,50,14,0,2
5,1496892485,841,11,16,82,56,12,0,2
5,1496892485,841,12,16,84,48,2,0,2
5,1496892485,841,13,16,82,44,4,0,2
5,1496892485,841,14,16,82,44,12,0,2
5,1496892485,841,15,18,84,48,16,0,2
5,1496892485,841,16,18,84,48,14,-6,2
5,1496892485,841,17,16,84,46,6,-4,2
5,1496892485,841,18,18,86,42,4,-4,2
5,1496892485,841,19,18,86,44,2,-2,0
5,1496892485,841,20,18,86,42,0,-2,0
5,1496892486,842,1,18,86,42,0,0,0
5,1496892486,842,2,18,86,40,0,0,0
5,1496892486,842,3,18,86,42,0,0,0
5,1496892486,842,4,18,86,42,0,0,0
5,1496892486,842,5,18,86,42,0,0,0
5,1496892486,842,6,18,86,42,0,0,0
5,1496892486,842,7,18,86,40,0,0,0
5,1496892486,842,8,20,86,40,0,0,0
5,1496892486,842,9,18,86,42,0,0,0
5,1496892486,842,10,18,86,42,0,0,0
5,1496892486,842,11,20,86,40,0,0,0
5,1496892486,842,12,18,86,42,-2,2,0
5,1496892486,842,13,18,86,42,-2,2,0
5,1496892486,842,14,18,86,42,-4,4,0
5,1496892486,842,15,18,86,40,-2,2,0
5,1496892486,842,16,18,86,42,-2,2,0
5,1496892486,842,17,18,86,42,-2,4,0
5,1496892486,842,18,18,86,42,-2,2,0
5,1496892486,842,19,18,86,44,-4,4,0
5,1496892486,842,20,16,84,44,-8,6,0
5,1496892487,843,1,18,84,48,-16,4,0
5,1496892487,843,2,16,84,42,-16,4,0
5,1496892487,843,3,18,84,50,-18,4,0
5,1496892487,843,4,16,84,46,-20,4,0
5,1496892487,843,5,16,82,52,-28,6,0
5,1496892487,843,6,14,80,26,-24,4,-2
5,1496892487,843,7,14,80,52,-6,0,0
5,1496892487,843,8,16,78,50,-4,0,0
5,1496892487,843,9,14,80,48,0,2,0
5,1496892487,843,10,14,80,52,0,2,4
5,1496892487,843,11,16,80,52,0,0,0
5,1496892487,843,12,14,80,52,0,0,0
5,1496892487,843,13,16,80,52,0,0,0
5,1496892487,843,14,16,80,52,0,0,0
5,1496892487,843,15,16,80,52,0,0,0
5,1496892487,843,16,16,80,52,0,0,0
5,1496892487,843,17,16,80,52,0,0,0
5,1496892487,843,18,16,80,54,0,0,2
5,1496892487,843,19,14,80,52,0,0,0
5,1496892487,843,20,16,80,52,0,0,0
5,1496892488,844,1,16,80,52,0,0,0
5,1496892488,844,2,16,80,52,0,0,0
5,1496892488,844,3,16,80,52,0,0,0
5,1496892488,844,4,16,80,52,0,0,0
5,1496892488,844,5,16,80,52,0,0,0
5,1496892488,844,6,16,80,52,0,0,0
5,1496892488,844,7,16,80,52,0,0,0
5,1496892488,844,8,16,80,52,0,0,0
5,1496892488,844,9,14,80,52,0,0,0
5,1496892488,844,10,16,80,52,0,0,0
5,1496892488,844,11,16,80,52,0,0,0
5,1496892488,844,12,16,80,52,0,0,0
5,1496892488,844,13,16,80,52,0,0,0
5,1496892488,844,14,16,80,52,0,0,0
5,1496892488,844,15,14,80,52,0,0,0
5,1496892488,844,16,16,80,52,0,0,0
5,1496892488,844,17,16,80,50,0,0,0
5,1496892488,844,18,14,80,52,0,0,0
5,1496892488,844,19,16,80,50,0,0,0
5,1496892488,844,20,14,80,52,0,0,0
5,1496892489,845,1,16,80,50,0,0,0
5,1496892489,845,2,16,80,50,0,0,0
5,1496892489,845,3,16,80,52,0,0,0
5,1496892489,845,4,16,80,52,0,0,0
5,1496892489,845,5,16,80,52,0,0,0
5,1496892489,845,6,16,80,52,0,0,0
5,1496892489,845,7,16,80,52,0,0,0
5,1496892489,845,8,16,80,52,0,0,0
5,1496892489,845,9,16,80,52,0,0,0
5,1496892489,845,10,16,80,52,0,0,0
5,1496892489,845,11,14,80,50,0,0,0
5,1496892489,845,12,16,80,52,0,0,0
5,1496892489,845,13,16,80,50,0,0,0
5,1496892489,845,14,16,80,52,0,0,0
5,1496892489,845,15,16,80,52,0,0,0
5,1496892489,845,16,16,80,50,0,0,0
5,1496892489,845,17,16,80,50,0,0,0
5,1496892489,845,18,16,80,52,0,0,0
5,1496892489,845,19,14,80,48,2,0,0
5,1496892489,845,20,16,82,52,6,0,2
5,1496892490,846,1,14,82,50,-2,0,0
5,1496892490,846,2,16,82,50,-2,0,0
5,1496892490,846,3,16,80,50,0,0,0
5,1496892490,846,4,18,80,54,0,2,2
5,1496892490,846,5,14,82,52,-2,0,0
5,1496892490,846,6,16,80,50,-4,0,0
5,1496892490,846,7,16,80,50,0,0,0
5,1496892490,846,8,16,80,50,0,0,0
5,1496892490,846,9,14,80,50,0,0,0
5,1496892490,846,10,16,80,50,0,0,0
5,1496892490,846,11,16,82,50,0,0,0
5,1496892490,846,12,16,82,52,0,0,0
5,1496892490,846,13,16,82,50,0,0,0
5,1496892490,846,14,14,82,50,0,0,0
5,1496892490,846,15,16,80,50,2,0,0
5,1496892490,846,16,14,82,50,4,0,0
5,1496892490,846,17,16,82,50,2,0,0
5,1496892490,846,18,16,82,50,0,0,0
5,1496892490,846,19,16,82,48,0,0,0
5,1496892490,846,20,16,82,50,0,0,0
5,1496892491,847,1,14,82,46,2,0,0
5,1496892491,847,2,16,82,50,2,0,0
5,1496892491,847,3,16,82,48,2,0,0
5,1496892491,847,4,16,82,48,0,0,0
5,1496892491,847,5,16,82,50,0,0,0
5,1496892491,847,6,16,82,48,0,0,0
5,1496892491,847,7,16,82,48,0,0,0
5,1496892491,847,8,16,82,48,0,0,0
5,1496892491,847,9,16,82,46,0,0,0
5,1496892491,847,10,16,82,50,4,0,0
5,1496892491,847,11,16,84,48,0,0,0
5,1496892491,847,12,16,82,48,0,0,0
5,1496892491,847,13,16,82,48,0,0,0
5,1496892491,847,14,16,84,48,0,0,0
5,1496892491,847,15,16,82,48,0,0,0
5,1496892491,847,16,16,82,48,0,0,0
5,1496892491,847,17,16,84,46,0,0,0
5,1496892491,847,18,16,84,48,0,0,0
5,1496892491,847,19,16,82,46,0,0,0
5,1496892491,847,20,16,84,46,0,0,0
5,1496892491,848,1,16,84,44,2,0,0
5,1496892491,848,2,16,84,48,2,0,0
5,1496892491,848,3,16,84,48,0,0,0
5,1496892491,848,4,16,84,46,0,0,0
5,1496892491,848,5,16,84,46,0,0,0
5,1496892491,848,6,16,84,46,0,0,0
5,1496892491,848,7,16,84,44,0,0,0
5,1496892491,848,8,16,84,46,0,0,0
5,1496892491,848,9,16,84,46,0,0,0
5,1496892491,848,10,16,84,46,0,0,0
5,1496892491,848,11,16,84,46,0,0,0
5,1496892491,848,12,16,84,46,0,0,0
5,1496892491,848,13,16,84,46,-2,0,0
5,1496892491,848,14,16,84,46,0,0,0
5,1496892491,848,15,16,84,46,0,0,0
5,1496892491,848,16,16,84,46,-2,0,0
5,1496892491,848,17,16,84,46,0,0,0
5,1496892491,848,18,16,84,46,-2,0,0
5,1496892491,848,19,16,84,50,-4,0,0
5,1496892491,848,20,16,84,54,-28,4,0
5,1496892492,849,1,18,80,58,-12,2,0
5,1496892492,849,2,18,80,58,-14,2,0
5,1496892492,849,3,14,80,44,-14,4,0
5,1496892492,849,4,14,78,48,-8,2,0
5,1496892492,849,5,14,78,52,0,0,0
5,1496892492,849,6,12,80,52,6,0,0
5,1496892492,849,7,16,78,56,6,0,0
5,1496892492,849,8,14,80,50,4,2,2
5,1496892492,849,9,14,80,52,0,0,2
5,1496892492,849,10,16,80,48,4,0,2
5,1496892492,849,11,14,80,50,4,0,2
5,1496892492,849,12,16,80,52,4,0,0
5,1496892492,849,13,16,82,52,2,0,0
5,1496892492,849,14,14,82,52,0,0,0
5,1496892492,849,15,14,80,48,0,0,0
5,1496892492,849,16,14,82,52,4,0,0
5,1496892492,849,17,16,82,48,2,0,0
5,1496892492,849,18,14,82,50,2,0,0
5,1496892492,849,19,14,82,50,0,0,0
5,1496892492,849,20,14,82,48,2,0,0
5,1496892493,850,1,16,82,48,0,0,0
5,1496892493,850,2,16,82,48,2,0,0
5,1496892493,850,3,16,82,48,2,0,0
5,1496892493,850,4,16,82,48,0,0,0
5,1496892493,850,5,16,82,48,0,0,0
5,1496892493,850,6,16,82,48,0,0,0
5,1496892493,850,7,16,82,48,0,0,0
5,1496892493,850,8,16,82,48,0,0,0
5,1496892493,850,9,16,84,46,0,0,0
5,1496892493,850,10,16,84,46,0,0,0
5,1496892493,850,11,16,84,48,0,0,0
5,1496892493,850,12,16,82,46,0,0,0
5,1496892493,850,13,16,84,48,0,0,0
5,1496892493,850,14,16,84,46,0,0,0
5,1496892493,850,15,16,84,46,0,0,0
5,1496892493,850,16,16,84,46,0,0,0
5,1496892493,850,17,16,84,46,0,0,0
5,1496892493,850,18,16,82,46,0,0,0
5,1496892493,850,19,16,84,44,2,0,0
5,1496892493,850,20,16,84,48,4,0,2
5,1496892494,851,1,16,84,48,0,0,0
5,1496892494,851,2,16,84,46,0,0,0
5,1496892494,851,3,16,84,46,0,0,0
5,1496892494,851,4,16,84,46,0,0,0
5,1496892494,851,5,16,84,46,0,0,0
5,1496892494,851,6,16,84,46,0,0,0
5,1496892494,851,7,16,82,44,0,0,0
5,1496892494,851,8,16,84,46,0,0,0
5,1496892494,851,9,16,84,46,0,0,0
5,1496892494,851,10,16,84,46,0,0,0
5,1496892494,851,11,16,84,44,0,0,0
5,1496892494,851,12,16,84,46,0,0,0
5,1496892494,851,13,16,84,44,0,0,0
5,1496892494,851,14,16,84,46,-2,0,0
5,1496892494,851,15,16,84,48,-2,0,0
5,1496892494,851,16,16,84,46,-4,0,0
5,1496892494,851,17,16,84,46,-2,0,0
5,1496892494,851,18,16,84,52,-6,0,0
5,1496892494,851,19,14,84,44,-10,2,0
5,1496892494,851,20,14,82,48,-16,4,0
5,1496892495,852,1,16,82,42,-8,2,0
5,1496892495,852,2,16,82,48,0,0,0
5,1496892495,852,3,16,82,48,0,0,0
5,1496892495,852,4,16,82,48,0,0,0
5,1496892495,852,5,16,82,48,0,0,0
5,1496892495,852,6,16,82,48,0,0,0
5,1496892495,852,7,14,82,50,2,0,0
5,1496892495,852,8,16,82,48,0,0,0
5,1496892495,852,9,16,82,48,2,0,0
5,1496892495,852,10,16,82,48,4,0,0
5,1496892495,852,11,16,82,46,2,0,0
5,1496892495,852,12,16,84,46,2,0,0
5,1496892495,852,13,16,82,48,0,0,0
5,1496892495,852,14,16,84,46,0,0,0
5,1496892495,852,15,16,84,46,0,0,0
5,1496892495,852,16,16,82,48,0,0,0
5,1496892495,852,17,16,84,46,0,0,0
5,1496892495,852,18,16,84,46,0,0,0
5,1496892495,852,19,16,84,46,0,0,0
5,1496892495,852,20,16,84,46,0,0,0
5,1496892496,853,1,16,84,44,0,0,0
5,1496892496,853,2,16,84,44,0,0,0
5,1496892496,853,3,16,84,44,0,0,0
5,1496892496,853,4,16,84,44,2,0,0
5,1496892496,853,5,16,84,46,2,0,0
5,1496892496,853,6,16,84,44,0,0,0
5,1496892496,853,7,16,84,44,0,0,0
5,1496892496,853,8,16,84,46,0,0,0
5,1496892496,853,9,16,84,44,0,0,0
5,1496892496,853,10,16,84,44,0,0,0
5,1496892496,853,11,16,84,44,0,0,0
5,1496892496,853,12,16,84,44,0,0,0
5,1496892496,853,13,16,84,44,0,0,0
5,1496892496,853,14,16,84,44,0,0,0
5,1496892496,853,15,16,84,42,0,0,0
5,1496892496,853,16,16,84,44,0,0,0
5,1496892496,853,17,16,84,44,0,0,0
5,1496892496,853,18,16,84,42,0,0,0
5,1496892496,853,19,16,86,44,0,0,0
5,1496892496,853,20,16,86,44,0,0,0
5,1496892497,854,1,16,86,44,0,0,0
5,1496892497,854,2,16,84,44,0,0,0
5,1496892497,854,3,16,84,42,0,0,0
5,1496892497,854,4,16,86,44,0,0,0
5,1496892497,854,5,16,86,42,0,0,0
5,1496892497,854,6,16,84,42,0,0,0
5,1496892497,854,7,16,86,42,0,0,0
5,1496892497,854,8,16,86,44,0,0,0
5,1496892497,854,9,16,84,42,0,0,0
5,1496892497,854,10,16,86,44,-2,0,0
5,1496892497,854,11,16,86,44,-2,0,0
5,1496892497,854,12,14,86,42,-4,0,0
5,1496892497,854,13,16,86,44,-4,0,0
5,1496892497,854,14,16,84,48,-10,2,0
5,1496892497,854,15,16,84,40,-12,2,0
5,1496892497,854,16,16,84,46,-8,2,0
5,1496892497,854,17,16,84,44,-18,2,0
5,1496892497,854,18,16,84,44,-6,2,0
5,1496892497,854,19,16,82,46,-8,2,0
5,1496892497,854,20,16,82,48,-4,0,0
5,1496892498,855,1,14,82,46,-16,4,0
5,1496892498,855,2,12,82,34,-16,2,0
5,1496892498,855,3,12,80,44,-10,0,0
5,1496892498,855,4,16,80,50,0,0,0
5,1496892498,855,5,14,80,50,4,2,4
5,1496892498,855,6,16,82,54,4,0,0
5,1496892498,855,7,16,80,46,8,0,2
5,1496892498,855,8,16,80,50,12,0,4
5,1496892498,855,9,14,82,48,6,0,0
5,1496892498,855,10,14,82,50,4,0,2
5,1496892498,855,11,14,84,48,2,0,0
5,1496892498,855,12,16,82,48,4,0,2
5,1496892498,855,13,16,82,42,8,0,2
5,1496892498,855,14,16,84,52,12,0,2
5,1496892498,855,15,14,84,48,8,0,2
5,1496892498,855,16,16,84,46,2,0,0
5,1496892498,855,17,16,84,44,0,0,0
5,1496892498,855,18,16,84,44,0,0,0
5,1496892498,855,19,16,84,44,0,0,0
5,1496892498,855,20,16,84,44,0,0,0
5,1496892499,856,1,16,84,44,0,0,0
5,1496892499,856,2,16,84,44,0,0,0
5,1496892499,856,3,16,84,44,0,0,0
5,1496892499,856,4,16,84,46,0,0,0
5,1496892499,856,5,16,84,42,4,0,0
5,1496892499,856,6,16,84,44,6,0,0
5,1496892499,856,7,18,84,44,4,0,0
5,1496892499,856,8,16,84,44,2,0,0
5,1496892499,856,9,16,86,42,0,0,0
5,1496892499,856,10,16,86,42,0,0,0
5,1496892499,856,11,16,86,42,0,0,0
5,1496892499,856,12,16,86,42,0,0,0
5,1496892499,856,13,16,86,42,0,0,0
5,1496892499,856,14,16,86,42,0,0,0
5,1496892499,856,15,16,86,42,0,0,0
5,1496892499,856,16,16,86,42,0,0,0
5,1496892499,856,17,16,86,42,0,0,0
5,1496892499,856,18,16,86,42,0,0,0
5,1496892499,856,19,16,86,42,0,0,0
5,1496892499,856,20,16,86,42,0,0,0
5,1496892500,857,1,16,86,42,0,0,0
5,1496892500,857,2,16,86,42,-2,0,0
5,1496892500,857,3,16,86,42,0,0,0
5,1496892500,857,4,16,86,42,0,0,0
5,1496892500,857,5,16,86,42,-2,0,0
5,1496892500,857,6,16,86,42,-2,0,0
5,1496892500,857,7,16,86,44,-2,0,0
5,1496892500,857,8,16,86,44,-2,0,0
5,1496892500,857,9,16,84,46,-8,2,0
5,1496892500,857,10,16,86,44,-8,0,0
5,1496892500,857,11,16,84,44,-18,4,0
5,1496892500,857,12,16,82,44,-14,4,0
5,1496892500,857,13,16,82,46,-14,4,0
5,1496892500,857,14,16,82,44,-8,2,0
5,1496892500,857,15,16,84,54,-6,0,0
5,1496892500,857,16,14,82,44,-22,4,0
5,1496892500,857,17,16,80,46,-4,0,0
5,1496892500,857,18,14,82,56,-6,2,0
5,1496892500,857,19,16,80,48,-12,2,0
5,1496892500,857,20,16,80,50,0,2,0
5,1496892501,858,1,16,80,50,4,0,0
5,1496892501,858,2,14,80,46,8,0,0
5,1496892501,858,3,14,82,50,0,0,0
5,1496892501,858,4,14,82,48,2,0,0
5,1496892501,858,5,16,82,50,2,0,0
5,1496892501,858,6,16,82,50,0,0,0
5,1496892501,858,7,14,82,48,0,0,0
5,1496892501,858,8,16,82,48,0,0,0
5,1496892501,858,9,16,82,48,0,0,0
5,1496892501,858,10,16,82,46,4,0,0
5,1496892501,858,11,16,82,48,4,0,0
5,1496892501,858,12,14,82,46,6,0,0
5,1496892501,858,13,14,82,46,4,0,0
5,1496892501,858,14,14,84,46,2,0,0
5,1496892501,858,15,16,84,44,4,0,0
5,1496892501,858,16,16,84,46,0,0,0
5,1496892501,858,17,16,84,46,0,0,0
5,1496892501,858,18,16,84,46,0,0,0
5,1496892501,858,19,16,84,46,0,0,0
5,1496892501,858,20,16,84,46,2,0,0
5,1496892502,859,1,16,84,46,2,0,0
5,1496892502,859,2,16,84,44,2,0,0
5,1496892502,859,3,16,84,44,2,0,0
5,1496892502,859,4,16,84,44,2,0,0
5,1496892502,859,5,16,84,44,0,0,0
5,1496892502,859,6,16,84,44,0,0,0
5,1496892502,859,7,16,84,44,2,0,0
5,1496892502,859,8,16,84,44,0,0,0
5,1496892502,859,9,16,84,44,0,0,0
5,1496892502,859,10,16,84,42,0,0,0
5,1496892502,859,11,16,84,42,2,0,0
5,1496892502,859,12,16,84,42,0,0,0
5,1496892502,859,13,16,86,44,0,0,0
5,1496892502,859,14,16,86,44,0,0,0
5,1496892502,859,15,16,86,42,0,0,0
5,1496892502,859,16,16,86,42,0,0,0
5,1496892502,859,17,16,86,42,0,0,0
5,1496892502,859,18,16,86,42,0,0,0
5,1496892502,859,19,16,86,42,0,0,0
5,1496892502,859,20,16,86,42,0,0,0
5,1496892503,860,1,16,86,42,-2,0,0
5,1496892503,860,2,16,86,44,-2,0,0
5,1496892503,860,3,18,86,42,-2,0,0
5,1496892503,860,4,16,86,42,-2,0,0
5,1496892503,860,5,16,86,42,-2,0,0
5,1496892503,860,6,16,86,42,-2,0,0
5,1496892503,860,7,16,86,44,-2,0,0
5,1496892503,860,8,16,86,44,-10,2,0
5,1496892503,860,9,16,84,52,-18,2,0
5,1496892503,860,10,16,84,52,-26,4,-2
5,1496892503,860,11,14,82,50,0,0,0
5,1496892503,860,12,14,82,50,0,0,0
5,1496892503,860,13,14,82,50,0,0,0
5,1496892503,860,14,14,82,50,0,0,0
5,1496892503,860,15,14,82,48,0,0,0
5,1496892503,860,16,16,82,48,0,0,0
5,1496892503,860,17,16,82,48,0,0,0
5,1496892503,860,18,16,82,48,0,0,0
5,1496892503,860,19,16,82,50,0,0,0
5,1496892503,860,20,14,82,48,0,0,0
5,1496892504,861,1,14,82,48,0,0,0
5,1496892504,861,2,14,82,48,0,0,0
5,1496892504,861,3,14,82,48,0,0,0
5,1496892504,861,4,14,82,48,0,0,0
5,1496892504,861,5,14,82,48,0,0,0
5,1496892504,861,6,16,82,50,0,0,0
5,1496892504,861,7,14,82,50,0,0,0
5,1496892504,861,8,14,82,48,0,0,0
5,1496892504,861,9,16,82,52,-2,0,0
5,1496892504,861,10,16,82,52,-6,2,0
5,1496892504,861,11,14,80,50,-8,2,0
5,1496892504,861,12,16,82,54,-16,4,0
5,1496892504,861,13,14,80,50,-10,2,0
5,1496892504,861,14,16,80,50,-4,0,0
5,1496892504,861,15,14,80,52,-2,0,0
5,1496892504,861,16,14,80,52,-2,0,0
5,1496892504,861,17,12,80,56,-6,2,0
5,1496892504,861,18,14,80,60,-18,2,-6
5,1496892504,861,19,12,78,60,-34,6,-2
5,1496892504,861,20,12,76,-6,6,-22,-10
5,1496892505,862,1,34,74,62,-4,2,0
5,1496892505,862,2,32,72,52,0,2,2
5,1496892505,862,3,16,76,52,0,0,0
5,1496892505,862,4,14,76,52,0,0,0
5,1496892505,862,5,16,76,56,0,0,0
5,1496892505,862,6,14,76,54,0,0,0
5,1496892505,862,7,12,78,56,0,0,0
5,1496892505,862,8,14,76,56,0,0,0
5,1496892505,862,9,14,78,56,0,0,0
5,1496892505,862,10,14,78,56,0,0,0
5,1496892505,862,11,14,78,56,0,0,0
5,1496892505,862,12,12,78,56,0,0,0
5,1496892505,862,13,12,78,56,0,0,0
5,1496892505,862,14,12,78,56,0,0,0
5,1496892505,862,15,12,78,56,0,0,0
5,1496892505,862,16,14,78,56,0,0,0
5,1496892505,862,17,14,78,56,0,0,0
5,1496892505,862,18,12,76,56,0,0,0
5,1496892505,862,19,14,78,56,0,0,0
5,1496892505,862,20,14,78,56,0,0,0
5,1496892506,863,1,14,78,56,0,0,0
5,1496892506,863,2,12,78,56,0,0,0
5,1496892506,863,3,14,78,56,0,0,0
5,1496892506,863,4,12,76,56,0,0,0
5,1496892506,863,5,14,78,56,0,0,0
5,1496892506,863,6,14,78,56,0,0,0
5,1496892506,863,7,12,76,56,0,0,0
5,1496892506,863,8,14,78,56,0,0,0
5,1496892506,863,9,12,78,56,0,0,0
5,1496892506,863,10,12,78,56,0,0,0
5,1496892506,863,11,14,78,56,0,0,0
5,1496892506,863,12,14,78,56,0,0,0
5,1496892506,863,13,14,76,56,0,0,0
5,1496892506,863,14,14,78,56,0,0,0
5,1496892506,863,15,14,78,56,0,0,0
5,1496892506,863,16,14,78,56,0,0,0
5,1496892506,863,17,14,78,56,0,0,0
5,1496892506,863,18,12,78,56,0,0,0
5,1496892506,863,19,14,78,56,0,0,0
5,1496892506,863,20,14,78,56,0,0,0
5,1496892506,864,1,12,78,56,0,0,0
5,1496892506,864,2,14,78,56,0,0,0
5,1496892506,864,3,14,78,56,0,0,0
5,1496892506,864,4,14,78,56,0,0,0
5,1496892506,864,5,14,78,56,0,0,0
5,1496892506,864,6,14,78,56,0,0,0
5,1496892506,864,7,12,78,56,0,0,0
5,1496892506,864,8,14,78,56,0,0,0
5,1496892506,864,9,12,76,56,0,0,0
5,1496892506,864,10,14,78,56,0,0,0
5,1496892506,864,11,14,78,56,0,0,0
5,1496892506,864,12,14,78,56,0,0,0
5,1496892506,864,13,14,78,56,0,0,0
5,1496892506,864,14,14,78,56,0,0,0
5,1496892506,864,15,14,78,56,0,0,0
5,1496892506,864,16,14,78,56,0,0,0
5,1496892506,864,17,14,78,56,0,0,0
5,1496892506,864,18,14,78,56,0,0,0
5,1496892506,864,19,14,78,56,0,0,0
5,1496892506,864,20,14,78,56,0,0,0
5,1496892507,865,1,14,78,56,0,0,0
5,1496892507,865,2,14,78,56,0,0,0
5,1496892507,865,3,14,78,56,0,0,0
5,1496892507,865,4,14,78,56,0,0,0
5,1496892507,865,5,14,78,56,0,0,0
5,1496892507,865,6,14,78,56,0,0,0
5,1496892507,865,7,12,78,56,0,0,0
5,1496892507,865,8,14,78,56,0,0,0
5,1496892507,865,9,12,78,56,0,0,0
5,1496892507,865,10,14,78,56,0,0,0
5,1496892507,865,11,14,78,56,0,0,0
5,1496892507,865,12,14,78,56,0,0,0
5,1496892507,865,13,14,78,56,0,0,0
5,1496892507,865,14,14,76,56,0,0,0
5,1496892507,865,15,12,78,56,0,0,0
5,1496892507,865,16,14,78,56,0,0,0
5,1496892507,865,17,14,78,56,0,0,0
5,1496892507,865,18,14,78,56,0,0,0
5,1496892507,865,19,14,78,56,0,0,0
5,1496892507,865,20,14,78,56,0,0,0
5,1496892508,866,1,14,78,56,0,0,0
5,1496892508,866,2,14,78,56,0,0,0
5,1496892508,866,3,14,78,56,0,0,0
5,1496892508,866,4,14,78,56,0,0,0
5,1496892508,866,5,14,76,56,0,0,0
5,1496892508,866,6,14,78,56,0,0,0
5,1496892508,866,7,14,78,56,0,0,0
5,1496892508,866,8,14,78,56,0,0,0
5,1496892508,866,9,14,78,56,0,0,0
5,1496892508,866,10,14,76,56,0,0,0
5,1496892508,866,11,14,76,56,0,0,0
5,1496892508,866,12,14,78,56,0,0,0
5,1496892508,866,13,14,78,56,0,0,0
5,1496892508,866,14,14,78,56,0,0,0
5,1496892508,866,15,14,78,56,0,0,0
5,1496892508,866,16,14,78,56,0,0,0
5,1496892508,866,17,14,78,56,0,0,0
5,1496892508,866,18,12,78,56,0,0,0
5,1496892508,866,19,14,78,56,0,0,0
5,1496892508,866,20,14,78,56,0,0,0
5,1496892509,867,1,12,78,56,0,0,0
5,1496892509,867,2,14,78,56,0,0,0
5,1496892509,867,3,14,78,56,0,0,0
5,1496892509,867,4,14,78,56,0,0,0
5,1496892509,867,5,14,78,56,0,0,0
5,1496892509,867,6,14,78,56,0,0,0
5,1496892509,867,7,12,78,56,0,0,0
5,1496892509,867,8,14,78,56,0,0,0
5,1496892509,867,9,14,78,56,0,0,0
5,1496892509,867,10,14,78,56,0,0,0
5,1496892509,867,11,14,76,56,0,0,0
5,1496892509,867,12,14,78,56,0,0,0
5,1496892509,867,13,12,78,56,0,0,0
5,1496892509,867,14,12,78,56,0,0,0
5,1496892509,867,15,12,78,56,0,0,0
5,1496892509,867,16,14,78,56,0,0,0
5,1496892509,867,17,14,78,56,0,0,0
5,1496892509,867,18,14,78,56,0,0,0
5,1496892509,867,19,14,76,56,0,0,0
5,1496892509,867,20,14,78,56,0,0,0
5,1496892510,868,1,14,78,56,0,0,0
5,1496892510,868,2,14,78,56,0,0,0
5,1496892510,868,3,14,78,56,0,0,0
5,1496892510,868,4,14,78,56,0,0,0
5,1496892510,868,5,14,78,56,0,0,0
5,1496892510,868,6,14,78,56,0,0,0
5,1496892510,868,7,14,78,56,0,0,0
5,1496892510,868,8,14,78,56,0,0,0
5,1496892510,868,9,14,78,56,0,0,0
5,1496892510,868,10,12,78,56,0,0,0
5,1496892510,868,11,12,78,56,0,0,0
5,1496892510,868,12,14,78,56,0,0,0
5,1496892510,868,13,12,78,56,0,0,0
5,1496892510,868,14,14,78,56,0,0,0
5,1496892510,868,15,12,78,56,0,0,0
5,1496892510,868,16,14,78,56,0,0,0
5,1496892510,868,17,14,78,56,0,0,0
5,1496892510,868,18,14,78,56,0,0,0
5,1496892510,868,19,14,78,56,0,0,0
5,1496892510,868,20,12,78,56,0,0,0
5,1496892511,869,1,14,78,56,0,0,0
5,1496892511,869,2,14,78,56,0,0,0
5,1496892511,869,3,12,78,56,0,0,0
5,1496892511,869,4,14,78,56,0,0,0
5,1496892511,869,5,14,78,56,0,0,0
5,1496892511,869,6,14,78,56,0,0,0
5,1496892511,869,7,14,78,56,0,0,0
5,1496892511,869,8,14,76,56,0,0,0
5,1496892511,869,9,14,78,56,0,0,0
5,1496892511,869,10,14,78,56,0,0,0
5,1496892511,869,11,14,78,56,0,0,0
5,1496892511,869,12,14,78,56,0,0,0
5,1496892511,869,13,12,78,56,0,0,0
5,1496892511,869,14,12,78,56,0,0,0
5,1496892511,869,15,14,78,56,0,0,0
5,1496892511,869,16,12,78,56,0,0,0
5,1496892511,869,17,14,76,56,0,0,0
5,1496892511,869,18,14,78,56,0,0,0
5,1496892511,869,19,14,78,56,0,0,0
5,1496892511,869,20,14,78,56,0,0,0
5,1496892512,870,1,12,78,56,0,0,0
5,1496892512,870,2,12,78,56,0,0,0
5,1496892512,870,3,14,78,56,0,0,0
5,1496892512,870,4,14,78,56,0,0,0
5,1496892512,870,5,12,78,56,0,0,0
5,1496892512,870,6,12,76,56,0,0,0
5,1496892512,870,7,14,78,56,0,0,0
5,1496892512,870,8,12,78,56,0,0,0
5,1496892512,870,9,14,78,56,0,0,0
5,1496892512,870,10,14,76,56,0,0,0
5,1496892512,870,11,14,78,56,0,0,0
5,1496892512,870,12,14,78,56,0,0,0
5,1496892512,870,13,14,76,56,0,0,0
5,1496892512,870,14,14,78,56,0,0,0
5,1496892512,870,15,14,78,56,0,0,0
5,1496892512,870,16,14,78,56,0,0,0
5,1496892512,870,17,14,78,56,0,0,0
5,1496892512,870,18,14,78,56,0,0,0
5,1496892512,870,19,14,78,56,0,0,0
5,1496892512,870,20,14,78,56,0,0,0
5,1496892513,871,1,14,78,56,0,0,0
5,1496892513,871,2,12,78,56,0,0,0
5,1496892513,871,3,14,78,56,0,0,0
5,1496892513,871,4,14,78,56,0,0,0
5,1496892513,871,5,14,76,56,0,0,0
5,1496892513,871,6,14,78,56,0,0,0
5,1496892513,871,7,14,78,56,0,0,0
5,1496892513,871,8,14,78,56,0,0,0
5,1496892513,871,9,12,78,56,0,0,0
5,1496892513,871,10,12,78,56,0,0,0
5,1496892513,871,11,12,78,56,0,0,0
5,1496892513,871,12,14,76,56,0,0,0
5,1496892513,871,13,14,78,56,0,0,0
5,1496892513,871,14,14,78,56,0,0,0
5,1496892513,871,15,14,76,56,0,0,0
5,1496892513,871,16,14,78,56,0,0,0
5,1496892513,871,17,12,78,56,0,0,0
5,1496892513,871,18,12,78,56,0,0,0
5,1496892513,871,19,12,78,56,0,0,0
5,1496892513,871,20,12,78,56,0,0,0
5,1496892514,872,1,14,78,56,0,0,0
5,1496892514,872,2,14,78,56,0,0,0
5,1496892514,872,3,12,78,56,0,0,0
5,1496892514,872,4,14,78,56,0,0,0
5,1496892514,872,5,12,78,56,0,0,0
5,1496892514,872,6,14,78,56,0,0,0
5,1496892514,872,7,14,78,56,0,0,0
5,1496892514,872,8,14,78,56,0,0,0
5,1496892514,872,9,14,78,56,0,0,0
5,1496892514,872,10,14,78,56,0,0,0
5,1496892514,872,11,14,78,58,0,0,0
5,1496892514,872,12,14,78,56,0,0,0
5,1496892514,872,13,12,78,56,0,0,0
5,1496892514,872,14,14,78,56,0,0,0
5,1496892514,872,15,14,78,56,0,0,0
5,1496892514,872,16,14,78,56,0,0,0
5,1496892514,872,17,14,78,56,0,0,0
5,1496892514,872,18,12,78,56,0,0,0
5,1496892514,872,19,12,78,56,0,0,0
5,1496892514,872,20,12,78,56,0,0,0
5,1496892515,873,1,14,78,56,0,0,0
5,1496892515,873,2,14,78,56,0,0,0
5,1496892515,873,3,14,78,56,0,0,0
5,1496892515,873,4,14,78,56,0,0,0
5,1496892515,873,5,14,76,56,0,0,0
5,1496892515,873,6,14,78,56,0,0,0
5,1496892515,873,7,14,78,56,0,0,0
5,1496892515,873,8,12,78,56,0,0,0
5,1496892515,873,9,12,78,56,0,0,0
5,1496892515,873,10,14,78,56,0,0,0
5,1496892515,873,11,14,78,56,0,0,0
5,1496892515,873,12,14,78,56,0,0,0
5,1496892515,873,13,14,76,56,0,0,0
5,1496892515,873,14,14,78,56,0,0,0
5,1496892515,873,15,14,78,56,0,0,0
5,1496892515,873,16,14,78,56,0,0,0
5,1496892515,873,17,14,78,56,0,0,0
5,1496892515,873,18,14,78,56,0,0,0
5,1496892515,873,19,14,78,56,0,0,0
5,1496892515,873,20,14,78,56,0,0,0
5,1496892516,874,1,14,78,56,0,0,0
5,1496892516,874,2,14,78,56,0,0,0
5,1496892516,874,3,14,78,56,0,0,0
5,1496892516,874,4,14,78,56,0,0,0
5,1496892516,874,5,12,78,56,0,0,0
5,1496892516,874,6,14,78,56,0,0,0
5,1496892516,874,7,14,78,56,0,0,0
5,1496892516,874,8,12,78,56,0,0,0
5,1496892516,874,9,14,76,56,0,0,0
5,1496892516,874,10,14,76,56,0,0,0
5,1496892516,874,11,14,78,56,0,0,0
5,1496892516,874,12,12,78,56,0,0,0
5,1496892516,874,13,14,78,56,0,0,0
5,1496892516,874,14,14,78,56,0,0,0
5,1496892516,874,15,14,78,56,0,0,0
5,1496892516,874,16,14,78,56,0,0,0
5,1496892516,874,17,12,78,56,0,0,0
5,1496892516,874,18,12,78,56,0,0,0
5,1496892516,874,19,14,78,56,0,0,0
5,1496892516,874,20,12,78,56,0,0,0
5,1496892517,875,1,14,78,56,0,0,0
5,1496892517,875,2,12,78,56,0,0,0
5,1496892517,875,3,12,78,56,0,0,0
5,1496892517,875,4,14,78,56,0,0,0
5,1496892517,875,5,12,78,56,0,0,0
5,1496892517,875,6,12,78,56,0,0,0
5,1496892517,875,7,14,78,56,0,0,0
5,1496892517,875,8,14,78,56,0,0,0
5,1496892517,875,9,12,78,56,0,0,0
5,1496892517,875,10,14,78,56,0,0,0
5,1496892517,875,11,14,78,56,0,0,0
5,1496892517,875,12,14,76,56,0,0,0
5,1496892517,875,13,14,78,56,0,0,0
5,1496892517,875,14,14,78,56,0,0,0
5,1496892517,875,15,14,78,56,0,0,0
5,1496892517,875,16,12,78,56,0,0,0
5,1496892517,875,17,12,78,56,0,0,0
5,1496892517,875,18,14,78,56,0,0,0
5,1496892517,875,19,12,78,56,0,0,0
5,1496892517,875,20,14,78,56,0,0,0
5,1496892518,876,1,12,78,56,0,0,0
5,1496892518,876,2,14,78,56,0,0,0
5,1496892518,876,3,12,78,56,0,0,0
5,1496892518,876,4,14,78,56,0,0,0
