ID,timeStamp,packetNumber,sampleNumber,accX,accY,accZ,gyrX,gyrY,gyrZ
1,1496757323,2406,1,-41,-88,9,0,1,0
1,1496757323,2406,2,-38,-91,6,-2,0,0
1,1496757323,2406,3,-40,-88,10,0,1,0
1,1496757323,2406,4,-39,-88,8,-2,0,0
1,1496757323,2406,5,-41,-92,8,0,1,0
1,1496757323,2406,6,-39,-90,8,-2,1,0
1,1496757323,2406,7,-41,-95,7,0,0,0
1,1496757323,2406,8,-40,-94,6,0,0,0
1,1496757323,2406,9,-41,-87,10,-2,0,0
1,1496757323,2406,10,-40,-89,7,-2,0,0
1,1496757323,2406,11,-40,-91,9,-2,0,0
1,1496757323,2406,12,-40,-94,5,-2,0,0
1,1496757323,2406,13,-41,-91,9,-2,0,0
1,1496757323,2406,14,-41,-91,8,0,1,0
1,1496757323,2406,15,-39,-89,8,-2,0,0
1,1496757323,2406,16,-41,-90,7,0,0,0
1,1496757323,2406,17,-40,-93,9,0,1,0
1,1496757323,2406,18,-41,-89,7,-2,0,0
1,1496757323,2406,19,-40,-88,9,-2,1,0
1,1496757323,2406,20,-39,-88,9,-2,0,0
1,1496757325,2408,1,-43,-90,7,-2,0,0
1,1496757325,2408,2,-41,-90,9,0,1,0
1,1496757325,2408,3,-39,-90,10,0,0,0
1,1496757325,2408,4,-40,-91,6,-2,0,0
1,1496757325,2408,5,-42,-89,9,0,0,0
1,1496757325,2408,6,-40,-91,8,-2,0,0
1,1496757325,2408,7,-40,-89,7,-2,0,0
1,1496757325,2408,8,-43,-89,8,0,0,0
1,1496757325,2408,9,-42,-89,9,0,1,0
1,1496757325,2408,10,-39,-89,9,-2,1,0
1,1496757325,2408,11,-40,-89,5,-4,0,0
1,1496757325,2408,12,-42,-90,7,0,0,0
1,1496757325,2408,13,-40,-88,8,-2,0,0
1,1496757325,2408,14,-40,-86,8,-2,0,0
1,1496757325,2408,15,-38,-88,7,-4,0,0
1,1496757325,2408,16,-41,-89,8,0,1,0
1,1496757325,2408,17,-42,-92,7,0,0,0
1,1496757325,2408,18,-40,-91,9,0,1,0
1,1496757325,2408,19,-40,-89,6,-2,0,0
1,1496757325,2408,20,-40,-89,8,-2,0,0
1,1496757326,2409,1,-41,-89,8,-2,1,0
1,1496757326,2409,2,-38,-90,7,-2,0,0
1,1496757326,2409,3,-38,-89,8,-4,1,0
1,1496757326,2409,4,-41,-89,6,-2,0,0
1,1496757326,2409,5,-41,-92,6,-2,0,0
1,1496757326,2409,6,-42,-90,10,0,0,0
1,1496757326,2409,7,-42,-93,9,-2,1,0
1,1496757326,2409,8,-40,-92,9,-2,1,0
1,1496757326,2409,9,-38,-91,6,-2,1,0
1,1496757326,2409,10,-40,-85,9,-4,0,0
1,1496757326,2409,11,-43,-89,7,-2,0,0
1,1496757326,2409,12,-39,-86,8,-4,1,0
1,1496757326,2409,13,-40,-87,9,-2,0,0
1,1496757326,2409,14,-38,-86,10,0,1,0
1,1496757326,2409,15,-39,-90,7,-4,0,0
1,1496757326,2409,16,-42,-95,6,0,0,0
1,1496757326,2409,17,-43,-94,8,0,0,0
1,1496757326,2409,18,-42,-90,9,0,0,0
1,1496757326,2409,19,-43,-91,10,0,0,0
1,1496757326,2409,20,-39,-88,10,0,1,0
1,1496757328,2411,1,-41,-89,8,0,0,0
1,1496757328,2411,2,-38,-88,8,-2,0,0
1,1496757328,2411,3,-40,-90,10,-2,0,0
1,1496757328,2411,4,-39,-89,8,-2,0,0
1,1496757328,2411,5,-38,-88,10,0,1,0
1,1496757328,2411,6,-38,-87,8,-2,0,0
1,1496757328,2411,7,-40,-90,7,-2,0,0
1,1496757328,2411,8,-41,-89,8,-2,0,0
1,1496757328,2411,9,-42,-90,8,0,0,0
1,1496757328,2411,10,-42,-90,8,0,0,0
1,1496757328,2411,11,-42,-92,6,-2,0,0
1,1496757328,2411,12,-42,-91,7,0,0,0
1,1496757328,2411,13,-42,-91,7,-2,0,0
1,1496757328,2411,14,-38,-87,8,-2,0,0
1,1496757328,2411,15,-43,-92,9,0,0,0
1,1496757328,2411,16,-42,-93,10,0,1,0
1,1496757328,2411,17,-39,-89,10,0,1,0
1,1496757328,2411,18,-40,-92,9,0,1,0
1,1496757328,2411,19,-39,-89,9,-2,1,0
1,1496757328,2411,20,-39,-89,8,-2,0,0
1,1496757330,2413,1,-40,-89,7,-2,0,0
1,1496757330,2413,2,-39,-87,8,0,0,0
1,1496757330,2413,3,-39,-90,8,-2,0,0
1,1496757330,2413,4,-39,-90,9,-2,0,0
1,1496757330,2413,5,-39,-90,8,0,0,0
1,1496757330,2413,6,-41,-90,8,0,1,0
1,1496757330,2413,7,-42,-90,8,0,0,0
1,1496757330,2413,8,-41,-88,10,0,3,-2
1,1496757330,2413,9,-42,-90,9,-2,1,0
1,1496757330,2413,10,-41,-89,7,0,0,0
1,1496757330,2413,11,-39,-91,8,-4,0,0
1,1496757330,2413,12,-40,-91,8,-2,0,0
1,1496757330,2413,13,-40,-91,9,-2,0,0
1,1496757330,2413,14,-40,-89,7,-2,0,0
1,1496757330,2413,15,-41,-91,8,-2,0,0
1,1496757330,2413,16,-42,-92,8,0,0,0
1,1496757330,2413,17,-41,-91,9,0,0,0
1,1496757330,2413,18,-42,-91,9,0,0,0
1,1496757330,2413,19,-41,-93,6,-2,0,0
1,1496757330,2413,20,-42,-92,6,-2,0,0
1,1496757331,2414,1,-40,-88,8,-2,0,0
1,1496757331,2414,2,-40,-88,9,0,0,0
1,1496757331,2414,3,-41,-89,8,0,0,0
1,1496757331,2414,4,-40,-90,9,-2,0,0
1,1496757331,2414,5,-40,-94,8,-2,1,0
1,1496757331,2414,6,-39,-90,8,-2,1,0
1,1496757331,2414,7,-42,-91,10,0,1,0
1,1496757331,2414,8,-42,-88,8,-2,0,0
1,1496757331,2414,9,-40,-90,7,-2,0,0
1,1496757331,2414,10,-42,-90,7,0,0,0
1,1496757331,2414,11,-41,-91,7,0,1,0
1,1496757331,2414,12,-40,-90,9,0,1,0
1,1496757331,2414,13,-40,-90,7,-2,0,0
1,1496757331,2414,14,-42,-91,9,0,0,0
1,1496757331,2414,15,-42,-93,8,-2,0,0
1,1496757331,2414,16,-42,-90,9,-2,1,0
1,1496757331,2414,17,-41,-90,8,-2,0,0
1,1496757331,2414,18,-41,-90,8,0,0,0
1,1496757331,2414,19,-40,-93,7,0,0,0
1,1496757331,2414,20,-39,-89,7,0,0,0
1,1496757332,2415,1,-40,-90,8,-2,0,0
1,1496757332,2415,2,-39,-89,9,0,1,0
1,1496757332,2415,3,-41,-91,9,0,1,0
1,1496757332,2415,4,-40,-91,9,-2,1,0
1,1496757332,2415,5,-41,-90,8,-2,1,0
1,1496757332,2415,6,-41,-89,6,-2,0,0
1,1496757332,2415,7,-40,-91,7,-2,0,0
1,1496757332,2415,8,-40,-90,7,0,0,0
1,1496757332,2415,9,-41,-88,8,-2,0,0
1,1496757332,2415,10,-41,-93,8,-2,0,0
1,1496757332,2415,11,-42,-91,8,-2,0,0
1,1496757332,2415,12,-42,-93,7,-2,0,0
1,1496757332,2415,13,-42,-89,8,0,1,0
1,1496757332,2415,14,-40,-89,7,0,0,0
1,1496757332,2415,15,-40,-88,7,-2,0,0
1,1496757332,2415,16,-39,-88,8,0,0,0
1,1496757332,2415,17,-38,-88,7,-4,0,0
1,1496757332,2415,18,-41,-90,9,-2,0,0
1,1496757332,2415,19,-43,-93,10,0,0,0
1,1496757332,2415,20,-42,-90,8,0,1,0
1,1496757333,2417,1,-40,-87,7,0,1,0
1,1496757333,2417,2,-40,-91,9,-2,0,0
1,1496757333,2417,3,-40,-88,8,-2,0,0
1,1496757333,2417,4,-41,-90,8,0,0,0
1,1496757333,2417,5,-41,-91,8,-2,0,0
1,1496757333,2417,6,-41,-90,6,-2,0,0
1,1496757333,2417,7,-41,-91,7,-2,0,0
1,1496757333,2417,8,-40,-90,8,-2,0,0
1,1496757333,2417,9,-40,-91,8,-2,1,0
1,1496757333,2417,10,-41,-90,8,-2,0,0
1,1496757333,2417,11,-40,-87,8,-2,0,0
1,1496757333,2417,12,-41,-88,8,-2,0,0
1,1496757333,2417,13,-40,-87,8,-2,0,0
1,1496757333,2417,14,-40,-87,9,-2,0,0
1,1496757333,2417,15,-40,-89,9,-2,1,0
1,1496757333,2417,16,-40,-88,9,0,1,0
1,1496757333,2417,17,-41,-89,8,0,0,0
1,1496757333,2417,18,-42,-89,8,0,0,0
1,1496757333,2417,19,-40,-92,7,-2,0,0
1,1496757333,2417,20,-40,-89,7,-4,0,0
1,1496757334,2418,1,-40,-91,8,0,0,0
1,1496757334,2418,2,-41,-89,9,0,1,0
1,1496757334,2418,3,-40,-89,8,0,0,0
1,1496757334,2418,4,-41,-88,8,0,0,0
1,1496757334,2418,5,-41,-89,7,0,0,0
1,1496757334,2418,6,-41,-90,9,0,0,0
1,1496757334,2418,7,-40,-91,9,0,0,0
1,1496757334,2418,8,-42,-89,8,0,0,0
1,1496757334,2418,9,-41,-91,8,-2,0,0
1,1496757334,2418,10,-40,-90,7,-2,0,0
1,1496757334,2418,11,-41,-92,6,-2,0,0
1,1496757334,2418,12,-42,-90,8,0,0,0
1,1496757334,2418,13,-41,-92,9,0,0,0
1,1496757334,2418,14,-40,-90,9,-2,0,0
1,1496757334,2418,15,-40,-90,9,-2,0,0
1,1496757334,2418,16,-40,-89,7,0,0,0
1,1496757334,2418,17,-40,-89,9,-2,0,0
1,1496757334,2418,18,-40,-89,9,0,0,0
1,1496757334,2418,19,-40,-90,8,-2,0,0
1,1496757334,2418,20,-41,-91,6,0,0,0
1,1496757336,2420,1,-41,-92,7,0,0,0
1,1496757336,2420,2,-40,-90,7,-2,0,0
1,1496757336,2420,3,-40,-92,6,-2,0,0
1,1496757336,2420,4,-40,-90,7,-2,0,0
1,1496757336,2420,5,-40,-88,7,0,1,0
1,1496757336,2420,6,-41,-90,7,0,0,0
1,1496757336,2420,7,-42,-92,8,0,0,0
1,1496757336,2420,8,-40,-90,10,0,0,0
1,1496757336,2420,9,-41,-89,11,0,1,0
1,1496757336,2420,10,-40,-90,8,-2,0,0
1,1496757336,2420,11,-39,-89,8,-2,1,0
1,1496757336,2420,12,-39,-90,7,-2,0,0
1,1496757336,2420,13,-41,-93,7,-2,0,0
1,1496757336,2420,14,-41,-91,9,-2,1,0
1,1496757336,2420,15,-43,-90,10,0,1,0
1,1496757336,2420,16,-41,-88,8,0,0,0
1,1496757336,2420,17,-40,-88,6,0,0,0
1,1496757336,2420,18,-39,-89,8,-2,1,0
1,1496757336,2420,19,-41,-90,10,0,1,0
1,1496757336,2420,20,-40,-91,10,-2,1,0
1,1496757337,2421,1,-40,-92,9,0,1,0
1,1496757337,2421,2,-42,-88,8,0,0,0
1,1496757337,2421,3,-40,-89,7,-4,0,0
1,1496757337,2421,4,-42,-92,8,-2,0,0
1,1496757337,2421,5,-42,-89,9,0,0,0
1,1496757337,2421,6,-41,-92,9,0,0,0
1,1496757337,2421,7,-40,-89,9,-2,0,0
1,1496757337,2421,8,-39,-88,8,-2,0,0
1,1496757337,2421,9,-38,-90,6,-2,0,0
1,1496757337,2421,10,-40,-91,7,0,0,0
1,1496757337,2421,11,-40,-92,7,-2,0,0
1,1496757337,2421,12,-42,-90,8,-2,1,0
1,1496757337,2421,13,-39,-87,8,0,0,0
1,1496757337,2421,14,-42,-90,9,0,0,0
1,1496757337,2421,15,-41,-92,9,0,0,0
1,1496757337,2421,16,-41,-90,9,0,0,0
1,1496757337,2421,17,-41,-91,9,-2,0,0
1,1496757337,2421,18,-40,-86,9,0,0,0
1,1496757337,2421,19,-40,-89,7,-2,0,0
1,1496757337,2421,20,-39,-90,7,-2,0,0
1,1496757338,2422,1,-38,-91,6,-2,0,0
1,1496757338,2422,2,-40,-89,7,0,0,0
1,1496757338,2422,3,-41,-90,5,-2,0,0
1,1496757338,2422,4,-42,-91,7,0,0,0
1,1496757338,2422,5,-41,-92,8,-2,0,0
1,1496757338,2422,6,-42,-89,9,0,0,0
1,1496757338,2422,7,-40,-88,8,-2,0,0
1,1496757338,2422,8,-41,-90,9,0,0,0
1,1496757338,2422,9,-39,-86,9,-2,0,0
1,1496757338,2422,10,-40,-88,8,-2,0,0
1,1496757338,2422,11,-41,-89,8,-2,0,0
1,1496757338,2422,12,-40,-89,7,0,0,0
1,1496757338,2422,13,-39,-89,8,0,0,0
1,1496757338,2422,14,-39,-92,8,0,0,0
1,1496757338,2422,15,-41,-89,8,-2,0,0
1,1496757338,2422,16,-42,-91,10,0,0,0
1,1496757338,2422,17,-41,-88,9,0,0,0
1,1496757338,2422,18,-41,-88,8,0,0,0
1,1496757338,2422,19,-41,-90,8,-2,0,0
1,1496757338,2422,20,-40,-87,7,-2,0,0
1,1496757339,2423,1,-40,-88,7,-2,0,0
1,1496757339,2423,2,-39,-89,7,-2,0,0
1,1496757339,2423,3,-41,-90,8,0,0,0
1,1496757339,2423,4,-42,-90,8,0,0,0
1,1496757339,2423,5,-41,-90,7,-2,0,0
1,1496757339,2423,6,-40,-89,8,0,0,0
1,1496757339,2423,7,-40,-90,9,0,1,0
1,1496757339,2423,8,-40,-90,8,0,0,0
1,1496757339,2423,9,-39,-88,8,-2,0,0
1,1496757339,2423,10,-41,-87,7,0,0,0
1,1496757339,2423,11,-41,-91,10,0,1,0
1,1496757339,2423,12,-41,-89,10,0,0,0
1,1496757339,2423,13,-42,-92,6,0,1,0
1,1496757339,2423,14,-40,-90,7,-2,0,0
1,1496757339,2423,15,-40,-89,7,-2,0,0
1,1496757339,2423,16,-40,-89,9,-2,1,0
1,1496757339,2423,17,-41,-90,9,0,0,0
1,1496757339,2423,18,-39,-89,7,-4,0,0
1,1496757339,2423,19,-41,-89,9,0,0,0
1,1496757339,2423,20,-40,-90,10,0,0,0
1,1496757340,2424,1,-41,-88,9,0,1,0
1,1496757340,2424,2,-40,-92,6,-2,0,0
1,1496757340,2424,3,-40,-91,6,0,0,0
1,1496757340,2424,4,-40,-90,7,-2,0,0
1,1496757340,2424,5,-42,-93,10,0,0,0
1,1496757340,2424,6,-41,-92,9,0,0,0
1,1496757340,2424,7,-39,-89,7,-2,0,0
1,1496757340,2424,8,-40,-88,7,-2,0,0
1,1496757340,2424,9,-39,-90,8,-2,0,0
1,1496757340,2424,10,-42,-92,8,0,0,0
1,1496757340,2424,11,-42,-92,8,0,0,0
1,1496757340,2424,12,-41,-91,8,0,0,0
1,1496757340,2424,13,-41,-92,9,0,0,0
1,1496757340,2424,14,-41,-89,10,0,1,0
1,1496757340,2424,15,-39,-88,8,-2,0,0
1,1496757340,2424,16,-40,-91,8,-2,0,0
1,1496757340,2424,17,-39,-89,9,-2,0,0
1,1496757340,2424,18,-42,-89,10,0,1,0
1,1496757340,2424,19,-42,-92,9,0,1,0
1,1496757340,2424,20,-41,-92,7,-2,0,0
1,1496757341,2425,1,-42,-91,9,0,0,0
1,1496757341,2425,2,-41,-89,9,0,1,0
1,1496757341,2425,3,-39,-89,7,0,0,0
1,1496757341,2425,4,-39,-89,6,-4,0,0
1,1496757341,2425,5,-39,-91,9,-2,0,0
1,1496757341,2425,6,-40,-90,9,-2,1,0
1,1496757341,2425,7,-42,-92,11,0,1,0
1,1496757341,2425,8,-41,-91,8,-2,1,0
1,1496757341,2425,9,-42,-90,9,0,1,0
1,1496757341,2425,10,-42,-89,9,0,1,0
1,1496757341,2425,11,-39,-89,7,0,0,0
1,1496757341,2425,12,-39,-89,6,-2,0,0
1,1496757341,2425,13,-38,-86,9,-2,0,0
1,1496757341,2425,14,-41,-91,10,0,1,0
1,1496757341,2425,15,-42,-90,10,0,0,0
1,1496757341,2425,16,-42,-90,9,0,0,0
1,1496757341,2425,17,-42,-93,9,0,0,0
1,1496757341,2425,18,-42,-88,9,0,1,0
1,1496757341,2425,19,-39,-90,6,-2,0,0
1,1496757341,2425,20,-39,-88,6,-2,0,0
1,1496757342,2426,1,-39,-90,9,-2,0,0
1,1496757342,2426,2,-42,-91,10,0,1,0
1,1496757342,2426,3,-42,-93,9,0,0,0
1,1496757342,2426,4,-42,-92,9,0,0,0
1,1496757342,2426,5,-41,-88,8,0,0,0
1,1496757342,2426,6,-42,-88,9,0,0,0
1,1496757342,2426,7,-39,-88,5,-2,0,0
1,1496757342,2426,8,-40,-87,7,-4,0,0
1,1496757342,2426,9,-39,-89,10,-2,1,0
1,1496757342,2426,10,-42,-92,10,0,0,0
1,1496757342,2426,11,-41,-91,8,0,0,0
1,1496757342,2426,12,-41,-89,9,0,0,0
1,1496757342,2426,13,-40,-90,8,0,0,0
1,1496757342,2426,14,-41,-89,8,0,0,0
1,1496757342,2426,15,-40,-86,8,-4,0,0
1,1496757342,2426,16,-41,-88,9,-2,0,0
1,1496757342,2426,17,-41,-91,11,0,1,0
1,1496757342,2426,18,-41,-90,8,0,0,0
1,1496757342,2426,19,-40,-89,7,-2,0,0
1,1496757342,2426,20,-40,-91,9,-2,0,0
1,1496757343,2427,1,-39,-88,8,-2,0,0
1,1496757343,2427,2,-39,-90,6,-2,0,0
1,1496757343,2427,3,-41,-90,9,-2,0,0
1,1496757343,2427,4,-41,-91,11,0,1,0
1,1496757343,2427,5,-42,-90,10,0,1,0
1,1496757343,2427,6,-39,-89,6,-4,0,0
1,1496757343,2427,7,-40,-90,8,-2,0,0
1,1496757343,2427,8,-40,-87,9,-2,0,0
1,1496757343,2427,9,-41,-90,8,-2,1,0
1,1496757343,2427,10,-40,-92,8,-2,0,0
1,1496757343,2427,11,-40,-87,10,0,0,0
1,1496757343,2427,12,-39,-91,9,0,0,0
1,1496757343,2427,13,-41,-89,6,-2,0,0
1,1496757343,2427,14,-41,-92,7,0,0,0
1,1496757343,2427,15,-41,-92,9,0,0,0
1,1496757343,2427,16,-40,-88,8,-2,0,0
1,1496757343,2427,17,-41,-91,10,0,0,0
1,1496757343,2427,18,-39,-88,10,-2,0,0
1,1496757343,2427,19,-42,-91,9,0,1,0
1,1496757343,2427,20,-41,-92,9,0,1,0
1,1496757344,2428,1,-42,-91,9,0,0,0
1,1496757344,2428,2,-40,-89,8,-2,0,0
1,1496757344,2428,3,-42,-92,8,0,1,0
1,1496757344,2428,4,-40,-89,7,-4,0,0
1,1496757344,2428,5,-41,-87,10,-2,1,0
1,1496757344,2428,6,-41,-91,10,-2,1,0
1,1496757344,2428,7,-40,-90,6,-2,0,0
1,1496757344,2428,8,-40,-91,8,-2,0,0
1,1496757344,2428,9,-40,-89,8,-2,0,0
1,1496757344,2428,10,-41,-90,6,-2,0,0
1,1496757344,2428,11,-40,-91,7,0,0,0
1,1496757344,2428,12,-39,-91,10,0,0,0
1,1496757344,2428,13,-40,-91,9,0,0,0
1,1496757344,2428,14,-41,-92,7,0,0,0
1,1496757344,2428,15,-41,-89,8,0,0,0
1,1496757344,2428,16,-42,-93,10,0,1,0
1,1496757344,2428,17,-40,-92,8,0,0,0
1,1496757344,2428,18,-40,-90,7,-2,0,0
1,1496757344,2428,19,-40,-92,9,-2,0,0
1,1496757344,2428,20,-41,-92,9,0,1,0
1,1496757345,2428,1,-39,-90,6,-2,0,0
1,1496757345,2428,2,-41,-92,9,0,1,0
1,1496757345,2428,3,-40,-90,6,-2,0,0
1,1496757345,2428,4,-40,-89,8,-2,1,0
1,1496757345,2428,5,-40,-92,6,-2,0,0
1,1496757345,2428,6,-41,-89,10,0,1,0
1,1496757345,2428,7,-41,-92,10,0,0,0
1,1496757345,2428,8,-42,-91,8,0,0,0
1,1496757345,2428,9,-41,-93,8,0,0,0
1,1496757345,2428,10,-41,-92,9,0,0,0
1,1496757345,2428,11,-40,-88,7,-2,1,0
1,1496757345,2428,12,-41,-90,7,-2,1,0
1,1496757345,2428,13,-39,-89,8,-2,0,0
1,1496757345,2428,14,-40,-92,7,0,0,0
1,1496757345,2428,15,-39,-91,10,0,0,0
1,1496757345,2428,16,-40,-90,9,-2,0,0
1,1496757345,2428,17,-40,-91,7,-4,0,0
1,1496757345,2428,18,-41,-91,7,-2,0,0
1,1496757345,2428,19,-42,-91,7,0,0,0
1,1496757345,2428,20,-41,-92,9,0,1,0
1,1496757345,2429,1,-39,-90,6,-2,0,0
1,1496757345,2429,2,-41,-92,9,0,1,0
1,1496757345,2429,3,-40,-90,6,-2,0,0
1,1496757345,2429,4,-40,-89,8,-2,1,0
1,1496757345,2429,5,-40,-92,6,-2,0,0
1,1496757345,2429,6,-41,-89,10,0,1,0
1,1496757345,2429,7,-41,-92,10,0,0,0
1,1496757345,2429,8,-42,-91,8,0,0,0
1,1496757345,2429,9,-41,-93,8,0,0,0
1,1496757345,2429,10,-41,-92,9,0,0,0
1,1496757345,2429,11,-40,-88,7,-2,1,0
1,1496757345,2429,12,-41,-90,7,-2,1,0
1,1496757345,2429,13,-39,-89,8,-2,0,0
1,1496757345,2429,14,-40,-92,7,0,0,0
1,1496757345,2429,15,-39,-91,10,0,0,0
1,1496757345,2429,16,-40,-90,9,-2,0,0
1,1496757345,2429,17,-40,-91,7,-4,0,0
1,1496757345,2429,18,-41,-91,7,-2,0,0
1,1496757345,2429,19,-42,-91,7,0,0,0
1,1496757345,2429,20,-40,-88,5,-2,0,0
1,1496757346,2430,1,-40,-92,10,0,0,0
1,1496757346,2430,2,-39,-88,7,-2,0,0
1,1496757346,2430,3,-40,-90,8,-2,0,0
1,1496757346,2430,4,-40,-87,9,-2,1,0
1,1496757346,2430,5,-41,-89,10,0,0,0
1,1496757346,2430,6,-42,-90,9,0,1,0
1,1496757346,2430,7,-39,-88,10,-2,0,0
1,1496757346,2430,8,-40,-89,8,-4,0,0
1,1496757346,2430,9,-40,-88,9,-2,1,0
1,1496757346,2430,10,-41,-91,9,0,1,0
1,1496757346,2430,11,-40,-92,8,0,0,0
1,1496757346,2430,12,-40,-88,7,0,1,0
1,1496757346,2430,13,-40,-91,6,0,0,0
1,1496757346,2430,14,-39,-90,9,-4,0,0
1,1496757346,2430,15,-40,-86,7,0,0,0
1,1496757346,2430,16,-39,-90,10,0,0,0
1,1496757346,2430,17,-41,-90,9,-2,0,0
1,1496757346,2430,18,-42,-93,10,0,1,0
1,1496757346,2430,19,-41,-90,8,0,0,0
1,1496757346,2430,20,-41,-87,8,0,0,0
1,1496757347,2431,1,-40,-90,6,0,0,0
1,1496757347,2431,2,-41,-90,8,0,0,0
1,1496757347,2431,3,-39,-91,8,-2,0,0
1,1496757347,2431,4,-39,-92,7,0,0,0
1,1496757347,2431,5,-40,-92,9,0,0,0
1,1496757347,2431,6,-40,-94,10,0,0,0
1,1496757347,2431,7,-41,-92,8,-2,0,0
1,1496757347,2431,8,-41,-87,9,0,0,0
1,1496757347,2431,9,-43,-90,9,0,0,0
1,1496757347,2431,10,-43,-90,9,0,0,0
1,1496757347,2431,11,-40,-90,8,-4,0,0
1,1496757347,2431,12,-40,-95,8,-2,0,0
1,1496757347,2431,13,-39,-92,6,-2,0,0
1,1496757347,2431,14,-40,-88,8,0,0,0
1,1496757347,2431,15,-39,-89,6,0,0,0
1,1496757347,2431,16,-40,-87,9,0,0,0
1,1496757347,2431,17,-40,-90,10,0,0,0
1,1496757347,2431,18,-41,-93,10,0,0,0
1,1496757347,2431,19,-40,-92,9,-2,0,0
1,1496757347,2431,20,-41,-91,10,0,1,0
1,1496757347,2432,1,-41,-91,8,-2,1,0
1,1496757347,2432,2,-40,-87,6,-2,0,0
1,1496757347,2432,3,-39,-88,7,-2,0,0
1,1496757347,2432,4,-39,-88,9,0,0,0
1,1496757347,2432,5,-39,-90,9,-2,0,0
1,1496757347,2432,6,-40,-90,7,-2,0,0
1,1496757347,2432,7,-42,-91,11,0,1,0
1,1496757347,2432,8,-42,-90,10,0,0,0
1,1496757347,2432,9,-41,-88,7,0,0,0
1,1496757347,2432,10,-40,-90,8,-2,0,0
1,1496757347,2432,11,-40,-87,10,-2,0,0
1,1496757347,2432,12,-40,-92,8,-2,0,0
1,1496757347,2432,13,-40,-93,9,0,1,0
1,1496757347,2432,14,-39,-93,8,0,0,0
1,1496757347,2432,15,-40,-89,9,0,0,0
1,1496757347,2432,16,-41,-87,7,-2,0,0
1,1496757347,2432,17,-41,-90,8,0,0,0
1,1496757347,2432,18,-40,-88,11,-2,0,0
1,1496757347,2432,19,-42,-89,9,-2,0,0
1,1496757347,2432,20,-40,-93,8,-2,0,0
1,1496757348,2433,1,-40,-93,8,-2,1,0
1,1496757348,2433,2,-40,-88,7,-2,0,0
1,1496757348,2433,3,-39,-89,6,-2,0,0
1,1496757348,2433,4,-39,-88,9,-2,0,0
1,1496757348,2433,5,-41,-89,10,0,0,0
1,1496757348,2433,6,-41,-91,10,0,1,0
1,1496757348,2433,7,-41,-91,8,0,0,0
1,1496757348,2433,8,-42,-90,8,0,0,0
1,1496757348,2433,9,-42,-87,9,0,0,0
1,1496757348,2433,10,-40,-88,8,-2,0,0
1,1496757348,2433,11,-39,-92,8,-2,0,0
1,1496757348,2433,12,-39,-92,8,-2,0,0
1,1496757348,2433,13,-39,-90,8,-2,0,0
1,1496757348,2433,14,-43,-92,11,0,0,0
1,1496757348,2433,15,-43,-89,11,0,1,0
1,1496757348,2433,16,-43,-90,9,0,0,0
1,1496757348,2433,17,-41,-91,7,0,0,0
1,1496757348,2433,18,-41,-87,11,0,1,0
1,1496757348,2433,19,-39,-90,8,-2,0,0
1,1496757348,2433,20,-40,-91,9,-2,0,0
1,1496757350,2435,1,-39,-93,7,-2,0,0
1,1496757350,2435,2,-41,-90,8,0,0,0
1,1496757350,2435,3,-41,-89,7,-2,0,0
1,1496757350,2435,4,-41,-88,8,0,0,0
1,1496757350,2435,5,-41,-87,12,0,1,0
1,1496757350,2435,6,-41,-90,9,0,0,0
1,1496757350,2435,7,-40,-92,8,-2,0,0
1,1496757350,2435,8,-39,-89,9,0,0,0
1,1496757350,2435,9,-40,-89,8,-2,0,0
1,1496757350,2435,10,-39,-88,6,-2,0,0
1,1496757350,2435,11,-40,-90,8,-2,0,0
1,1496757350,2435,12,-38,-87,9,0,0,0
1,1496757350,2435,13,-40,-91,10,0,1,0
1,1496757350,2435,14,-40,-91,7,-2,0,0
1,1496757350,2435,15,-40,-91,9,0,1,0
1,1496757350,2435,16,-40,-90,7,-2,0,0
1,1496757350,2435,17,-40,-90,6,-2,0,0
1,1496757350,2435,18,-39,-87,9,-2,0,0
1,1496757350,2435,19,-41,-90,10,0,0,0
1,1496757350,2435,20,-41,-91,10,0,0,0
1,1496757351,2436,1,-40,-92,10,0,1,0
1,1496757351,2436,2,-41,-91,7,-2,0,0
1,1496757351,2436,3,-41,-89,7,-2,0,0
1,1496757351,2436,4,-39,-88,9,-2,0,0
1,1496757351,2436,5,-40,-86,8,-2,0,0
1,1496757351,2436,6,-39,-92,8,0,0,0
1,1496757351,2436,7,-41,-89,10,0,0,0
1,1496757351,2436,8,-40,-89,9,0,0,0
1,1496757351,2436,9,-41,-90,8,0,0,0
1,1496757351,2436,10,-41,-89,8,0,0,0
1,1496757351,2436,11,-40,-87,10,-2,0,0
1,1496757351,2436,12,-41,-91,9,0,0,0
1,1496757351,2436,13,-40,-90,8,-2,0,0
1,1496757351,2436,14,-40,-89,8,0,0,0
1,1496757351,2436,15,-41,-92,8,0,0,0
1,1496757351,2436,16,-41,-89,7,0,0,0
1,1496757351,2436,17,-40,-87,9,0,0,0
1,1496757351,2436,18,-40,-92,11,0,0,0
1,1496757351,2436,19,-41,-90,10,-2,0,0
1,1496757351,2436,20,-40,-91,9,-2,0,0
1,1496757352,2437,1,-40,-93,9,0,1,0
1,1496757352,2437,2,-40,-90,7,0,0,0
1,1496757352,2437,3,-40,-89,8,0,0,0
1,1496757352,2437,4,-39,-88,7,0,0,0
1,1496757352,2437,5,-41,-91,9,0,0,0
1,1496757352,2437,6,-40,-92,9,-2,0,0
1,1496757352,2437,7,-41,-91,9,0,0,0
1,1496757352,2437,8,-41,-90,8,0,1,0
1,1496757352,2437,9,-41,-87,8,0,0,0
1,1496757352,2437,10,-40,-91,9,0,1,0
1,1496757352,2437,11,-40,-91,8,0,0,0
1,1496757352,2437,12,-41,-91,9,0,0,0
1,1496757352,2437,13,-40,-89,10,0,0,0
1,1496757352,2437,14,-42,-90,9,0,1,0
1,1496757352,2437,15,-42,-90,8,0,0,0
1,1496757352,2437,16,-41,-90,8,-2,0,0
1,1496757352,2437,17,-40,-91,8,0,0,0
1,1496757352,2437,18,-41,-93,9,0,0,0
1,1496757352,2437,19,-40,-90,8,-2,0,0
1,1496757352,2437,20,-39,-91,8,-2,0,0
1,1496757353,2438,1,-40,-91,8,-2,0,0
1,1496757353,2438,2,-41,-87,8,-2,0,0
1,1496757353,2438,3,-41,-90,8,-2,0,0
1,1496757353,2438,4,-41,-89,10,0,0,0
1,1496757353,2438,5,-40,-91,8,0,0,0
1,1496757353,2438,6,-40,-89,9,0,0,0
1,1496757353,2438,7,-40,-96,5,-2,0,0
1,1496757353,2438,8,-41,-87,7,-2,0,0
1,1496757353,2438,9,-39,-90,10,-2,0,0
1,1496757353,2438,10,-41,-90,10,0,0,0
1,1496757353,2438,11,-40,-90,8,0,0,0
1,1496757353,2438,12,-41,-89,8,0,0,0
1,1496757353,2438,13,-40,-88,9,0,0,0
1,1496757353,2438,14,-39,-90,6,-2,0,0
1,1496757353,2438,15,-40,-91,8,-2,0,0
1,1496757353,2438,16,-40,-89,10,-2,0,0
1,1496757353,2438,17,-40,-92,9,-2,0,0
1,1496757353,2438,18,-40,-93,9,0,0,0
1,1496757353,2438,19,-40,-87,9,0,0,0
1,1496757353,2438,20,-40,-90,8,-2,0,0
1,1496757354,2439,1,-41,-89,7,-2,0,0
1,1496757354,2439,2,-41,-90,9,0,0,0
1,1496757354,2439,3,-40,-93,8,-2,0,0
1,1496757354,2439,4,-40,-93,9,-2,0,0
1,1496757354,2439,5,-41,-92,9,0,1,0
1,1496757354,2439,6,-40,-89,6,-2,0,0
1,1496757354,2439,7,-40,-90,7,-2,0,0
1,1496757354,2439,8,-41,-91,9,0,0,0
1,1496757354,2439,9,-41,-90,8,0,0,0
1,1496757354,2439,10,-40,-90,9,0,0,0
1,1496757354,2439,11,-42,-91,8,0,1,0
1,1496757354,2439,12,-41,-89,8,0,0,0
1,1496757354,2439,13,-40,-91,9,-2,0,0
1,1496757354,2439,14,-40,-91,9,0,0,0
1,1496757354,2439,15,-41,-89,9,0,0,0
1,1496757354,2439,16,-41,-87,9,0,0,0
1,1496757354,2439,17,-40,-89,8,-2,0,0
1,1496757354,2439,18,-39,-89,7,-2,0,0
1,1496757354,2439,19,-40,-88,9,-2,0,0
1,1496757354,2439,20,-41,-89,10,0,0,0
1,1496757355,2440,1,-40,-90,10,0,0,0
1,1496757355,2440,2,-40,-89,10,0,0,0
1,1496757355,2440,3,-41,-90,8,-2,0,0
1,1496757355,2440,4,-40,-92,8,-2,0,0
1,1496757355,2440,5,-39,-91,8,-2,0,0
1,1496757355,2440,6,-40,-91,9,-2,0,0
1,1496757355,2440,7,-40,-90,9,0,0,0
1,1496757355,2440,8,-41,-89,10,0,1,0
1,1496757355,2440,9,-41,-91,8,0,0,0
1,1496757355,2440,10,-40,-89,9,-2,0,0
1,1496757355,2440,11,-40,-89,8,-2,0,0
1,1496757355,2440,12,-40,-89,9,0,0,0
1,1496757355,2440,13,-39,-90,8,-2,0,0
1,1496757355,2440,14,-41,-92,9,0,0,0
1,1496757355,2440,15,-40,-90,7,0,0,0
1,1496757355,2440,16,-40,-88,7,0,0,0
1,1496757355,2440,17,-42,-90,10,0,0,0
1,1496757355,2440,18,-40,-90,8,-2,0,0
1,1496757355,2440,19,-40,-92,8,-2,0,0
1,1496757355,2440,20,-41,-91,7,-2,0,0
1,1496757355,2440,1,-40,-88,7,0,0,0
1,1496757355,2440,2,-40,-89,9,0,0,0
1,1496757355,2440,3,-41,-90,9,0,0,0
1,1496757355,2440,4,-40,-92,8,-2,0,0
1,1496757355,2440,5,-39,-91,8,-2,0,0
1,1496757355,2440,6,-40,-91,9,-2,0,0
1,1496757355,2440,7,-40,-90,9,0,0,0
1,1496757355,2440,8,-41,-89,10,0,1,0
1,1496757355,2440,9,-41,-91,8,0,0,0
1,1496757355,2440,10,-40,-89,9,-2,0,0
1,1496757355,2440,11,-40,-89,8,-2,0,0
1,1496757355,2440,12,-40,-89,9,0,0,0
1,1496757355,2440,13,-39,-90,8,-2,0,0
1,1496757355,2440,14,-41,-92,9,0,0,0
1,1496757355,2440,15,-40,-90,7,0,0,0
1,1496757355,2440,16,-40,-88,7,0,0,0
1,1496757355,2440,17,-42,-90,10,0,0,0
1,1496757355,2440,18,-40,-90,8,-2,0,0
1,1496757355,2440,19,-40,-92,8,-2,0,0
1,1496757355,2440,20,-41,-91,7,-2,0,0
1,1496757356,2441,1,-40,-88,7,0,0,0
1,1496757356,2441,2,-40,-89,9,0,0,0
1,1496757356,2441,3,-41,-90,9,0,0,0
1,1496757356,2441,4,-41,-90,10,0,1,0
1,1496757356,2441,5,-41,-88,10,0,0,0
1,1496757356,2441,6,-41,-91,8,0,0,0
1,1496757356,2441,7,-40,-91,7,-2,0,0
1,1496757356,2441,8,-40,-89,10,-2,0,0
1,1496757356,2441,9,-40,-89,9,-2,0,0
1,1496757356,2441,10,-40,-90,9,-2,0,0
1,1496757356,2441,11,-41,-90,9,0,0,0
1,1496757356,2441,12,-42,-90,8,0,1,0
1,1496757356,2441,13,-41,-87,9,0,0,0
1,1496757356,2441,14,-40,-89,9,-2,0,0
1,1496757356,2441,15,-41,-91,8,-2,0,0
1,1496757356,2441,16,-39,-89,9,-2,0,0
1,1496757356,2441,17,-40,-88,7,-2,0,0
1,1496757356,2441,18,-39,-89,7,-2,0,0
1,1496757356,2441,19,-40,-90,8,0,0,0
1,1496757356,2441,20,-41,-91,9,0,0,0
1,1496757357,2442,1,-40,-90,9,0,0,0
1,1496757357,2442,2,-41,-88,9,0,1,0
1,1496757357,2442,3,-40,-91,9,-2,0,0
1,1496757357,2442,4,-39,-89,7,-2,0,0
1,1496757357,2442,5,-40,-89,9,-2,0,0
1,1496757357,2442,6,-41,-91,8,-2,0,0
1,1496757357,2442,7,-40,-88,8,0,0,0
1,1496757357,2442,8,-40,-90,9,0,0,0
1,1496757357,2442,9,-41,-90,7,0,0,0
1,1496757357,2442,10,-40,-91,9,0,0,0
1,1496757357,2442,11,-40,-89,9,-2,0,0
1,1496757357,2442,12,-40,-91,10,0,0,0
1,1496757357,2442,13,-40,-90,9,-2,0,0
1,1496757357,2442,14,-41,-89,8,0,0,0
1,1496757357,2442,15,-40,-91,7,0,0,0
1,1496757357,2442,16,-39,-90,9,0,1,0
1,1496757357,2442,17,-39,-91,8,0,0,0
1,1496757357,2442,18,-42,-90,9,0,0,0
1,1496757357,2442,19,-41,-86,10,0,0,0
1,1496757357,2442,20,-41,-91,8,0,0,0
1,1496757358,2443,1,-40,-90,8,-2,0,0
1,1496757358,2443,2,-41,-89,9,-2,0,0
1,1496757358,2443,3,-40,-92,8,0,0,0
1,1496757358,2443,4,-40,-94,9,0,0,0
1,1496757358,2443,5,-41,-91,8,0,0,0
1,1496757358,2443,6,-40,-90,7,-2,0,0
1,1496757358,2443,7,-41,-90,8,0,0,0
1,1496757358,2443,8,-41,-92,9,0,0,0
1,1496757358,2443,9,-39,-92,9,0,0,0
1,1496757358,2443,10,-41,-90,10,0,1,0
1,1496757358,2443,11,-40,-91,7,-2,0,0
1,1496757358,2443,12,-40,-90,8,-2,0,0
1,1496757358,2443,13,-40,-90,9,-2,0,0
1,1496757358,2443,14,-40,-93,10,0,0,0
1,1496757358,2443,15,-40,-91,9,0,0,0
1,1496757358,2443,16,-40,-90,7,-2,0,0
1,1496757358,2443,17,-39,-89,7,-2,0,0
1,1496757358,2443,18,-41,-93,9,0,0,0
1,1496757358,2443,19,-39,-90,10,-2,0,0
1,1496757358,2443,20,-39,-90,9,0,0,0
1,1496757359,2444,1,-41,-90,8,-2,0,0
1,1496757359,2444,2,-40,-90,9,0,0,0
1,1496757359,2444,3,-40,-90,8,-2,0,0
1,1496757359,2444,4,-40,-92,10,0,0,0
1,1496757359,2444,5,-40,-91,9,0,0,0
1,1496757359,2444,6,-41,-92,7,0,0,0
1,1496757359,2444,7,-41,-92,7,-2,0,0
1,1496757359,2444,8,-40,-88,10,0,1,0
1,1496757359,2444,9,-40,-91,9,-2,0,0
1,1496757359,2444,10,-40,-90,8,0,0,0
1,1496757359,2444,11,-40,-89,7,0,0,0
1,1496757359,2444,12,-40,-92,9,0,0,0
1,1496757359,2444,13,-39,-89,9,0,0,0
1,1496757359,2444,14,-40,-90,9,-2,0,0
1,1496757359,2444,15,-40,-89,9,0,0,0
1,1496757359,2444,16,-41,-90,8,0,1,0
1,1496757359,2444,17,-40,-90,9,0,1,0
1,1496757359,2444,18,-40,-90,8,0,0,0
1,1496757359,2444,19,-40,-91,8,-2,0,0
1,1496757359,2444,20,-40,-88,9,0,0,0
1,1496757360,2445,1,-41,-89,9,0,0,0
1,1496757360,2445,2,-40,-91,8,-2,0,0
1,1496757360,2445,3,-41,-89,9,-2,1,0
1,1496757360,2445,4,-41,-89,10,0,0,0
1,1496757360,2445,5,-40,-89,9,0,0,0
1,1496757360,2445,6,-40,-90,7,-2,0,0
1,1496757360,2445,7,-40,-90,9,-2,0,0
1,1496757360,2445,8,-40,-91,8,-2,0,0
1,1496757360,2445,9,-41,-88,8,-2,0,0
1,1496757360,2445,10,-40,-90,9,-2,0,0
1,1496757360,2445,11,-42,-91,8,0,0,0
1,1496757360,2445,12,-41,-90,8,0,0,0
1,1496757360,2445,13,-40,-91,9,0,1,0
1,1496757360,2445,14,-40,-90,8,-2,0,0
1,1496757360,2445,15,-41,-91,9,-2,0,0
1,1496757360,2445,16,-40,-89,8,-2,0,0
1,1496757360,2445,17,-40,-91,8,-2,0,0
1,1496757360,2445,18,-40,-89,9,-2,1,0
1,1496757360,2445,19,-40,-92,9,0,0,0
1,1496757360,2445,20,-40,-88,9,0,0,0
1,1496757361,2446,1,-41,-89,8,0,0,0
1,1496757361,2446,2,-40,-90,9,-2,0,0
1,1496757361,2446,3,-40,-87,9,0,0,0
1,1496757361,2446,4,-41,-91,8,-2,0,0
1,1496757361,2446,5,-40,-89,11,-2,0,0
1,1496757361,2446,6,-40,-87,8,-2,0,0
1,1496757361,2446,7,-41,-92,8,0,0,0
1,1496757361,2446,8,-39,-90,9,0,0,0
1,1496757361,2446,9,-40,-91,9,0,0,0
1,1496757361,2446,10,-40,-89,9,0,0,0
1,1496757361,2446,11,-41,-90,10,0,1,0
1,1496757361,2446,12,-41,-88,9,-2,0,0
1,1496757361,2446,13,-40,-87,9,0,0,0
1,1496757361,2446,14,-41,-92,8,-2,0,0
1,1496757361,2446,15,-41,-92,7,0,0,0
1,1496757361,2446,16,-40,-91,8,0,0,0
1,1496757361,2446,17,-40,-92,8,-2,0,0
1,1496757361,2446,18,-41,-91,10,-2,1,0
1,1496757361,2446,19,-41,-88,10,0,0,0
1,1496757361,2446,20,-40,-86,11,0,0,0
1,1496757362,2447,1,-41,-90,9,0,0,0
1,1496757362,2447,2,-41,-90,9,0,0,0
1,1496757362,2447,3,-40,-88,9,-2,0,0
1,1496757362,2447,4,-40,-91,9,-2,0,0
1,1496757362,2447,5,-39,-91,9,-2,0,0
1,1496757362,2447,6,-41,-87,10,0,0,0
1,1496757362,2447,7,-40,-93,7,-2,0,0
1,1496757362,2447,8,-41,-92,8,0,1,0
1,1496757362,2447,9,-41,-91,8,-2,0,0
1,1496757362,2447,10,-40,-87,10,0,0,0
1,1496757362,2447,11,-41,-91,7,-2,0,0
1,1496757362,2447,12,-40,-91,9,-2,0,0
1,1496757362,2447,13,-41,-90,9,0,1,0
1,1496757362,2447,14,-40,-90,9,0,0,0
1,1496757362,2447,15,-39,-86,9,-2,0,0
1,1496757362,2447,16,-41,-93,7,-2,0,0
1,1496757362,2447,17,-40,-93,8,-2,0,0
1,1496757362,2447,18,-40,-89,8,-2,0,0
1,1496757362,2447,19,-40,-91,10,-2,0,0
1,1496757362,2447,20,-41,-89,10,0,1,0
1,1496757362,2448,1,-41,-91,7,-2,0,0
1,1496757362,2448,2,-39,-91,8,0,0,0
1,1496757362,2448,3,-40,-91,9,-2,1,0
1,1496757362,2448,4,-39,-89,10,-2,0,0
1,1496757362,2448,5,-39,-91,6,-2,0,0
1,1496757362,2448,6,-41,-89,7,-2,0,0
1,1496757362,2448,7,-40,-87,8,-2,0,0
1,1496757362,2448,8,-42,-90,9,0,0,0
1,1496757362,2448,9,-40,-91,10,0,0,0
1,1496757362,2448,10,-40,-88,8,0,1,0
1,1496757362,2448,11,-41,-89,7,0,0,0
1,1496757362,2448,12,-40,-92,8,0,1,0
1,1496757362,2448,13,-41,-91,9,0,0,0
1,1496757362,2448,14,-40,-92,10,0,0,0
1,1496757362,2448,15,-41,-91,7,-2,0,0
1,1496757362,2448,16,-39,-90,6,-2,0,0
1,1496757362,2448,17,-41,-90,8,-2,0,0
1,1496757362,2448,18,-41,-91,9,-2,0,0
1,1496757362,2448,19,-41,-92,11,0,0,0
1,1496757362,2448,20,-42,-92,10,0,1,0
1,1496757363,2449,1,-40,-88,9,0,0,0
1,1496757363,2449,2,-41,-90,8,0,1,0
1,1496757363,2449,3,-39,-90,9,-2,0,0
1,1496757363,2449,4,-39,-90,11,0,0,0
1,1496757363,2449,5,-41,-89,8,-2,0,0
1,1496757363,2449,6,-40,-89,10,0,0,0
1,1496757363,2449,7,-40,-88,8,0,0,0
1,1496757363,2449,8,-41,-89,9,0,0,0
1,1496757363,2449,9,-39,-90,9,0,0,0
1,1496757363,2449,10,-41,-90,8,-2,0,0
1,1496757363,2449,11,-40,-90,9,-2,0,0
1,1496757363,2449,12,-41,-90,9,0,0,0
1,1496757363,2449,13,-40,-90,8,-2,0,0
1,1496757363,2449,14,-39,-89,10,0,0,0
1,1496757363,2449,15,-40,-89,8,0,0,0
1,1496757363,2449,16,-39,-88,9,0,0,0
1,1496757363,2449,17,-41,-91,9,-2,0,0
1,1496757363,2449,18,-41,-90,10,0,0,0
1,1496757363,2449,19,-41,-87,10,0,1,0
1,1496757363,2449,20,-41,-88,8,0,0,0
1,1496757364,2450,1,-40,-91,9,0,0,0
1,1496757364,2450,2,-41,-91,8,-2,0,0
1,1496757364,2450,3,-40,-91,8,-2,0,0
1,1496757364,2450,4,-40,-89,8,0,1,0
1,1496757364,2450,5,-41,-92,8,-2,0,0
1,1496757364,2450,6,-39,-88,9,-2,0,0
1,1496757364,2450,7,-41,-91,9,-2,0,0
1,1496757364,2450,8,-39,-94,10,0,0,0
1,1496757364,2450,9,-40,-89,8,0,0,0
1,1496757364,2450,10,-41,-91,8,-2,0,0
1,1496757364,2450,11,-40,-90,9,0,0,0
1,1496757364,2450,12,-42,-89,8,-2,0,0
1,1496757364,2450,13,-41,-91,10,0,0,0
1,1496757364,2450,14,-42,-89,9,0,1,0
1,1496757364,2450,15,-40,-91,9,-2,0,0
1,1496757364,2450,16,-40,-89,9,-2,0,0
1,1496757364,2450,17,-40,-90,8,-2,0,0
1,1496757364,2450,18,-40,-90,7,0,0,0
1,1496757364,2450,19,-40,-90,9,0,1,0
1,1496757364,2450,20,-41,-90,9,0,0,0
1,1496757365,2450,1,-40,-90,8,0,0,0
1,1496757365,2450,2,-41,-93,8,0,0,0
1,1496757365,2450,3,-40,-92,10,0,1,0
1,1496757365,2450,4,-40,-91,8,0,0,0
1,1496757365,2450,5,-40,-89,8,-2,0,0
1,1496757365,2450,6,-39,-89,7,-2,0,0
1,1496757365,2450,7,-41,-91,9,-2,0,0
1,1496757365,2450,8,-39,-94,10,0,0,0
1,1496757365,2450,9,-40,-89,8,0,0,0
1,1496757365,2450,10,-41,-91,8,-2,0,0
1,1496757365,2450,11,-40,-90,9,0,0,0
1,1496757365,2450,12,-42,-89,8,-2,0,0
1,1496757365,2450,13,-41,-91,10,0,0,0
1,1496757365,2450,14,-42,-89,9,0,1,0
1,1496757365,2450,15,-40,-91,9,-2,0,0
1,1496757365,2450,16,-40,-89,9,-2,0,0
1,1496757365,2450,17,-40,-90,8,-2,0,0
1,1496757365,2450,18,-40,-90,7,0,0,0
1,1496757365,2450,19,-40,-90,9,0,1,0
1,1496757365,2450,20,-41,-90,9,0,0,0
1,1496757365,2451,1,-40,-90,8,0,0,0
1,1496757365,2451,2,-41,-93,8,0,0,0
1,1496757365,2451,3,-40,-92,10,0,1,0
1,1496757365,2451,4,-40,-91,8,0,0,0
1,1496757365,2451,5,-40,-89,8,-2,0,0
1,1496757365,2451,6,-39,-89,7,-2,0,0
1,1496757365,2451,7,-41,-91,8,-2,0,0
1,1496757365,2451,8,-40,-90,10,0,0,0
1,1496757365,2451,9,-40,-92,8,0,0,0
1,1496757365,2451,10,-40,-89,8,0,0,0
1,1496757365,2451,11,-39,-87,9,0,0,0
1,1496757365,2451,12,-40,-89,9,0,1,0
1,1496757365,2451,13,-41,-93,10,0,0,0
1,1496757365,2451,14,-40,-89,8,0,0,0
1,1496757365,2451,15,-40,-88,8,-2,0,0
1,1496757365,2451,16,-39,-88,9,0,1,0
1,1496757365,2451,17,-42,-90,8,-2,0,0
1,1496757365,2451,18,-40,-89,9,-2,0,0
1,1496757365,2451,19,-41,-90,9,0,1,0
1,1496757365,2451,20,-40,-90,9,0,0,0
1,1496757366,2452,1,-39,-91,8,0,0,0
1,1496757366,2452,2,-40,-91,7,-2,0,0
1,1496757366,2452,3,-39,-87,10,-2,0,0
1,1496757366,2452,4,-41,-90,7,-2,0,0
1,1496757366,2452,5,-40,-93,9,-2,1,0
1,1496757366,2452,6,-41,-90,9,-2,1,0
1,1496757366,2452,7,-40,-91,9,0,0,0
1,1496757366,2452,8,-40,-87,9,0,0,0
1,1496757366,2452,9,-40,-90,7,0,0,0
1,1496757366,2452,10,-41,-88,9,0,1,0
1,1496757366,2452,11,-40,-90,9,0,1,0
1,1496757366,2452,12,-40,-90,10,0,0,0
1,1496757366,2452,13,-40,-92,10,0,0,0
1,1496757366,2452,14,-41,-92,8,-2,0,0
1,1496757366,2452,15,-40,-90,10,-2,0,0
1,1496757366,2452,16,-39,-86,9,0,1,0
1,1496757366,2452,17,-40,-90,10,-2,0,0
1,1496757366,2452,18,-40,-90,9,0,0,0
1,1496757366,2452,19,-41,-91,8,0,0,0
1,1496757366,2452,20,-41,-92,9,0,0,0
1,1496757367,2453,1,-39,-89,9,0,1,0
1,1496757367,2453,2,-40,-89,9,0,0,0
1,1496757367,2453,3,-39,-90,10,0,1,0
1,1496757367,2453,4,-41,-87,9,0,0,0
1,1496757367,2453,5,-40,-90,10,0,0,0
1,1496757367,2453,6,-41,-87,9,-2,0,0
1,1496757367,2453,7,-40,-91,8,-2,0,0
1,1496757367,2453,8,-40,-88,8,0,0,0
1,1496757367,2453,9,-40,-88,6,-2,0,0
1,1496757367,2453,10,-39,-89,8,-2,0,0
1,1496757367,2453,11,-42,-90,9,0,0,0
1,1496757367,2453,12,-40,-90,10,0,0,0
1,1496757367,2453,13,-40,-91,9,0,1,0
1,1496757367,2453,14,-40,-86,7,-2,0,0
1,1496757367,2453,15,-40,-92,9,-2,0,0
1,1496757367,2453,16,-41,-91,9,-2,0,0
1,1496757367,2453,17,-40,-89,10,-2,0,0
1,1496757367,2453,18,-40,-89,9,-2,1,0
1,1496757367,2453,19,-40,-91,8,-2,0,0
1,1496757367,2453,20,-40,-90,10,0,0,0
1,1496757368,2454,1,-41,-91,9,0,0,0
1,1496757368,2454,2,-40,-90,9,0,1,0
1,1496757368,2454,3,-40,-91,10,0,0,0
1,1496757368,2454,4,-40,-87,9,-2,0,0
1,1496757368,2454,5,-40,-90,10,0,1,0
1,1496757368,2454,6,-42,-92,8,-2,0,0
1,1496757368,2454,7,-39,-89,11,0,0,0
1,1496757368,2454,8,-39,-89,9,0,1,0
1,1496757368,2454,9,-39,-90,8,-2,0,0
1,1496757368,2454,10,-40,-88,8,0,0,0
1,1496757368,2454,11,-41,-92,8,-2,0,0
1,1496757368,2454,12,-40,-88,10,0,0,0
1,1496757368,2454,13,-40,-89,10,0,0,0
1,1496757368,2454,14,-40,-90,9,0,0,0
1,1496757368,2454,15,-41,-90,8,-2,1,0
1,1496757368,2454,16,-42,-91,9,-2,0,0
1,1496757368,2454,17,-40,-92,10,-2,1,0
1,1496757368,2454,18,-41,-91,9,0,0,0
1,1496757368,2454,19,-40,-88,8,-2,0,0
1,1496757368,2454,20,-40,-89,9,0,0,0
1,1496757369,2455,1,-40,-90,8,-2,0,0
1,1496757369,2455,2,-39,-88,10,0,1,0
1,1496757369,2455,3,-41,-90,8,-2,0,0
1,1496757369,2455,4,-41,-91,9,-2,0,0
1,1496757369,2455,5,-42,-91,8,-2,0,0
1,1496757369,2455,6,-40,-92,8,-2,0,0
1,1496757369,2455,7,-40,-89,10,0,1,0
1,1496757369,2455,8,-39,-89,8,-2,0,0
1,1496757369,2455,9,-39,-90,9,-2,0,0
1,1496757369,2455,10,-41,-89,9,-2,0,0
1,1496757369,2455,11,-40,-88,11,0,0,0
1,1496757369,2455,12,-40,-90,10,-2,1,0
1,1496757369,2455,13,-41,-88,8,-2,0,0
1,1496757369,2455,14,-39,-86,7,-2,0,0
1,1496757369,2455,15,-42,-89,9,-2,0,0
1,1496757369,2455,16,-41,-89,10,-2,1,0
1,1496757369,2455,17,-40,-91,10,0,1,0
1,1496757369,2455,18,-40,-90,9,0,0,0
1,1496757369,2455,19,-39,-88,10,0,1,0
1,1496757369,2455,20,-41,-90,10,-2,0,0
1,1496757370,2456,1,-39,-91,9,0,0,0
1,1496757370,2456,2,-41,-90,9,0,0,0
1,1496757370,2456,3,-40,-92,8,-2,0,0
1,1496757370,2456,4,-40,-89,10,-2,1,0
1,1496757370,2456,5,-41,-91,8,0,0,0
1,1496757370,2456,6,-40,-90,9,0,1,0
1,1496757370,2456,7,-41,-92,6,-4,0,0
1,1496757370,2456,8,-40,-90,8,-2,1,0
1,1496757370,2456,9,-40,-90,10,-2,1,0
1,1496757370,2456,10,-40,-90,10,0,0,0
1,1496757370,2456,11,-40,-90,10,0,0,0
1,1496757370,2456,12,-40,-89,8,0,0,0
1,1496757370,2456,13,-40,-91,9,-2,0,0
1,1496757370,2456,14,-42,-91,10,0,0,0
1,1496757370,2456,15,-39,-91,9,-2,0,0
1,1496757370,2456,16,-39,-88,10,0,0,0
1,1496757370,2456,17,-40,-95,9,-2,0,0
1,1496757370,2456,18,-39,-91,9,0,0,0
1,1496757370,2456,19,-39,-88,8,0,0,0
1,1496757370,2456,20,-39,-94,11,0,0,0
1,1496757371,2457,1,-40,-89,8,-2,0,0
1,1496757371,2457,2,-40,-90,7,-2,0,0
1,1496757371,2457,3,-41,-89,9,-2,1,0
1,1496757371,2457,4,-42,-91,9,0,1,0
1,1496757371,2457,5,-40,-90,11,0,0,0
1,1496757371,2457,6,-40,-92,8,0,1,0
1,1496757371,2457,7,-40,-90,7,-2,0,0
1,1496757371,2457,8,-39,-86,9,-2,0,0
1,1496757371,2457,9,-40,-89,10,-2,0,0
1,1496757371,2457,10,-39,-93,11,0,0,0
1,1496757371,2457,11,-41,-91,9,-2,1,0
1,1496757371,2457,12,-41,-91,7,-2,0,0
1,1496757371,2457,13,-41,-87,8,0,1,0
1,1496757371,2457,14,-40,-92,8,-2,0,0
1,1496757371,2457,15,-40,-89,9,-2,0,0
1,1496757371,2457,16,-41,-91,8,0,0,0
1,1496757371,2457,17,-40,-89,7,-4,0,0
1,1496757371,2457,18,-40,-87,8,-4,0,0
1,1496757371,2457,19,-40,-90,9,-2,0,0
1,1496757371,2457,20,-39,-91,10,0,0,0
1,1496757372,2458,1,-41,-89,8,0,0,0
1,1496757372,2458,2,-39,-92,9,-2,0,0
1,1496757372,2458,3,-39,-89,9,-2,0,0
1,1496757372,2458,4,-41,-89,9,-2,0,0
1,1496757372,2458,5,-40,-90,11,0,0,0
1,1496757372,2458,6,-40,-89,8,-2,0,0
1,1496757372,2458,7,-40,-92,9,0,0,0
1,1496757372,2458,8,-40,-89,7,0,0,0
1,1496757372,2458,9,-40,-93,9,-2,0,0
1,1496757372,2458,10,-41,-90,10,0,1,0
1,1496757372,2458,11,-41,-90,9,0,0,0
1,1496757372,2458,12,-39,-88,9,0,0,0
1,1496757372,2458,13,-41,-90,9,0,1,0
1,1496757372,2458,14,-41,-92,11,0,0,0
1,1496757372,2458,15,-40,-92,8,0,1,0
1,1496757372,2458,16,-41,-89,8,-2,0,0
1,1496757372,2458,17,-40,-89,9,0,0,0
1,1496757372,2458,18,-41,-91,9,-2,0,0
1,1496757372,2458,19,-41,-93,9,0,0,0
1,1496757372,2458,20,-41,-90,10,0,1,0
1,1496757373,2459,1,-41,-89,9,-2,0,0
1,1496757373,2459,2,-40,-90,10,0,1,0
1,1496757373,2459,3,-40,-90,8,-2,0,0
1,1496757373,2459,4,-40,-91,10,-2,0,0
1,1496757373,2459,5,-41,-90,7,-2,0,0
1,1496757373,2459,6,-40,-92,10,-2,0,0
1,1496757373,2459,7,-40,-89,10,0,0,0
1,1496757373,2459,8,-42,-89,9,-2,0,0
1,1496757373,2459,9,-39,-90,9,0,0,0
1,1496757373,2459,10,-41,-90,10,0,0,0
1,1496757373,2459,11,-40,-90,8,-2,0,0
1,1496757373,2459,12,-39,-88,9,-2,0,0
1,1496757373,2459,13,-40,-91,9,-2,0,0
1,1496757373,2459,14,-40,-92,9,0,0,0
1,1496757373,2459,15,-41,-90,9,0,1,0
1,1496757373,2459,16,-40,-90,9,0,0,0
1,1496757373,2459,17,-40,-89,9,-2,1,0
1,1496757373,2459,18,-41,-91,9,-2,0,0
1,1496757373,2459,19,-39,-92,9,-2,0,0
1,1496757373,2459,20,-40,-87,9,0,1,0
1,1496757374,2460,1,-40,-92,9,0,0,0
1,1496757374,2460,2,-41,-90,9,0,0,0
1,1496757374,2460,3,-41,-89,9,-2,0,0
1,1496757374,2460,4,-40,-88,11,0,1,0
1,1496757374,2460,5,-41,-89,9,0,0,0
1,1496757374,2460,6,-40,-92,9,0,0,0
1,1496757374,2460,7,-41,-88,10,-2,0,0
1,1496757374,2460,8,-41,-90,8,-2,0,0
1,1496757374,2460,9,-39,-89,8,0,1,0
1,1496757374,2460,10,-41,-90,8,0,0,0
1,1496757374,2460,11,-40,-90,10,0,0,0
1,1496757374,2460,12,-41,-91,9,0,0,0
1,1496757374,2460,13,-41,-92,9,-2,0,0
1,1496757374,2460,14,-40,-89,10,0,1,0
1,1496757374,2460,15,-40,-90,7,-2,0,0
1,1496757374,2460,16,-40,-90,8,-2,0,0
1,1496757374,2460,17,-40,-94,7,0,0,0
1,1496757374,2460,18,-40,-88,10,0,0,0
1,1496757374,2460,19,-41,-93,8,-2,0,0
1,1496757374,2460,20,-40,-94,6,-2,0,0
1,1496757375,2460,1,-41,-91,10,0,0,0
1,1496757375,2460,2,-41,-91,10,0,0,0
1,1496757375,2460,3,-39,-94,9,-2,0,0
1,1496757375,2460,4,-39,-88,9,-2,0,0
1,1496757375,2460,5,-39,-89,7,-2,0,0
1,1496757375,2460,6,-40,-87,8,0,0,0
1,1496757375,2460,7,-40,-87,10,0,0,0
1,1496757375,2460,8,-41,-89,10,0,0,0
1,1496757375,2460,9,-40,-91,10,0,1,0
1,1496757375,2460,10,-39,-91,8,-2,1,0
1,1496757375,2460,11,-40,-90,8,-2,0,0
1,1496757375,2460,12,-40,-91,9,0,0,0
1,1496757375,2460,13,-39,-89,10,0,0,0
1,1496757375,2460,14,-40,-89,10,0,0,0
1,1496757375,2460,15,-40,-87,10,0,0,0
1,1496757375,2460,16,-41,-89,9,0,0,0
1,1496757375,2460,17,-40,-92,10,-2,0,0
1,1496757375,2460,18,-42,-92,11,0,0,0
1,1496757375,2460,19,-39,-90,8,-2,0,0
1,1496757375,2460,20,-40,-94,6,-2,0,0
1,1496757375,2461,1,-41,-91,10,0,0,0
1,1496757375,2461,2,-41,-91,10,0,0,0
1,1496757375,2461,3,-39,-94,9,-2,0,0
1,1496757375,2461,4,-39,-88,9,-2,0,0
1,1496757375,2461,5,-39,-89,7,-2,0,0
1,1496757375,2461,6,-40,-87,8,0,0,0
1,1496757375,2461,7,-40,-87,10,0,0,0
1,1496757375,2461,8,-41,-89,10,0,0,0
1,1496757375,2461,9,-40,-91,10,0,1,0
1,1496757375,2461,10,-39,-91,8,-2,1,0
1,1496757375,2461,11,-40,-90,8,-2,0,0
1,1496757375,2461,12,-40,-91,9,0,0,0
1,1496757375,2461,13,-39,-89,10,0,0,0
1,1496757375,2461,14,-40,-89,10,0,0,0
1,1496757375,2461,15,-40,-87,10,0,0,0
1,1496757375,2461,16,-41,-89,9,0,0,0
1,1496757375,2461,17,-40,-92,10,-2,0,0
1,1496757375,2461,18,-42,-92,11,0,0,0
1,1496757375,2461,19,-39,-90,8,-2,0,0
1,1496757375,2461,20,-41,-91,8,0,0,0
1,1496757376,2462,1,-39,-90,8,-2,0,0
1,1496757376,2462,2,-42,-88,13,0,1,0
1,1496757376,2462,3,-41,-92,9,0,0,0
1,1496757376,2462,4,-40,-87,10,0,0,0
1,1496757376,2462,5,-42,-88,10,0,0,0
1,1496757376,2462,6,-39,-83,6,-2,0,0
1,1496757376,2462,7,-40,-86,10,0,0,0
1,1496757376,2462,8,-40,-89,10,-2,0,0
1,1496757376,2462,9,-41,-89,9,0,1,0
1,1496757376,2462,10,-42,-95,8,0,1,0
1,1496757376,2462,11,-41,-94,10,0,0,0
1,1496757376,2462,12,-42,-85,10,-2,0,0
1,1496757376,2462,13,-40,-95,7,0,0,0
1,1496757376,2462,14,-37,-82,9,-2,0,0
1,1496757376,2462,15,-39,-90,10,0,1,0
1,1496757376,2462,16,-37,-94,8,-2,0,-2
1,1496757376,2462,17,-37,-91,8,-2,0,0
1,1496757376,2462,18,-41,-85,12,0,0,0
1,1496757376,2462,19,-38,-90,11,0,1,0
1,1496757376,2462,20,-41,-98,10,0,0,0
1,1496757377,2463,1,-19,-66,-12,-48,58,-21
1,1496757377,2463,2,-13,-83,-6,-54,-180,-101
1,1496757377,2463,3,0,-84,0,-8,-25,13
1,1496757377,2463,4,-32,-89,9,-10,58,3
1,1496757377,2463,5,-43,-86,4,-2,-23,0
1,1496757377,2463,6,-37,-90,7,-4,0,0
1,1496757377,2463,7,-36,-89,10,-4,0,-2
1,1496757377,2463,8,-34,-91,6,-4,1,-2
1,1496757377,2463,9,-41,-97,7,0,0,0
1,1496757377,2463,10,-37,-94,2,0,1,0
1,1496757377,2463,11,-38,-89,6,-4,0,0
1,1496757377,2463,12,-40,-95,9,1,0,0
1,1496757377,2463,13,-35,-88,8,0,0,0
1,1496757377,2463,14,-35,-87,10,-2,0,0
1,1496757377,2463,15,-37,-93,8,0,0,0
1,1496757377,2463,16,-39,-87,13,0,1,0
1,1496757377,2463,17,-39,-90,12,0,1,0
1,1496757377,2463,18,-41,-93,9,0,0,0
1,1496757377,2463,19,-39,-89,9,0,0,0
1,1496757377,2463,20,-40,-88,11,-2,0,0
1,1496757377,2464,1,-42,-94,7,0,0,0
1,1496757377,2464,2,-41,-88,6,-2,0,0
1,1496757377,2464,3,-41,-91,7,-2,0,0
1,1496757377,2464,4,-40,-89,8,-2,0,0
1,1496757377,2464,5,-39,-87,7,-4,0,0
1,1496757377,2464,6,-41,-93,9,0,1,0
1,1496757377,2464,7,-40,-91,7,0,0,0
1,1496757377,2464,8,-39,-88,8,-2,0,0
1,1496757377,2464,9,-42,-86,8,0,0,0
1,1496757377,2464,10,-40,-92,10,-2,1,0
1,1496757377,2464,11,-42,-91,12,0,1,0
1,1496757377,2464,12,-41,-91,8,0,0,0
1,1496757377,2464,13,-41,-94,5,-2,0,0
1,1496757377,2464,14,-41,-88,8,-2,0,0
1,1496757377,2464,15,-41,-93,12,0,0,0
1,1496757377,2464,16,-41,-88,11,0,1,0
1,1496757377,2464,17,-40,-88,11,0,1,0
1,1496757377,2464,18,-42,-86,7,0,1,0
1,1496757377,2464,19,-40,-90,7,-2,1,0
1,1496757377,2464,20,-40,-91,11,0,3,-2
1,1496757378,2465,1,-41,-92,6,0,1,0
1,1496757378,2465,2,-41,-91,11,0,1,0
1,1496757378,2465,3,-41,-88,9,0,1,0
1,1496757378,2465,4,-40,-89,8,0,1,0
1,1496757378,2465,5,-43,-92,10,0,1,0
1,1496757378,2465,6,-44,-90,9,3,0,5
1,1496757378,2465,7,-37,-89,5,0,1,3
1,1496757378,2465,8,-41,-86,7,-2,1,0
1,1496757378,2465,9,-39,-86,8,-2,3,-6
1,1496757378,2465,10,-40,-93,11,0,7,-12
1,1496757378,2465,11,-36,-92,10,0,11,-6
1,1496757378,2465,12,-41,-91,6,-2,1,-2
1,1496757378,2465,13,-41,-84,10,-2,3,0
1,1496757378,2465,14,-41,-95,3,0,3,0
1,1496757378,2465,15,-40,-91,4,-2,3,0
1,1496757378,2465,16,-44,-85,8,0,5,0
1,1496757378,2465,17,-40,-93,7,1,5,-2
1,1496757378,2465,18,-42,-88,7,0,5,0
1,1496757378,2465,19,-41,-92,9,0,5,0
1,1496757378,2465,20,-45,-89,9,0,5,0
1,1496757379,2466,1,-42,-97,11,1,5,0
1,1496757379,2466,2,-38,-84,9,0,5,0
1,1496757379,2466,3,-46,-93,7,1,7,0
1,1496757379,2466,4,-45,-89,8,0,7,0
1,1496757379,2466,5,-41,-89,2,0,7,0
1,1496757379,2466,6,-42,-87,4,1,9,0
1,1496757379,2466,7,-38,-82,5,0,9,0
1,1496757379,2466,8,-46,-89,7,1,7,0
1,1496757379,2466,9,-46,-91,8,3,5,0
1,1496757379,2466,10,-49,-99,13,9,5,-6
1,1496757379,2466,11,-37,-92,11,-2,13,0
1,1496757379,2466,12,-38,-93,17,1,15,-4
1,1496757379,2466,13,-31,-85,10,-4,20,1
1,1496757379,2466,14,-34,-83,12,0,18,0
1,1496757379,2466,15,-34,-87,11,0,17,0
1,1496757379,2466,16,-36,-81,10,0,18,0
1,1496757379,2466,17,-33,-83,8,-2,17,0
1,1496757379,2466,18,-37,-86,5,0,15,0
1,1496757379,2466,19,-36,-81,9,5,17,-2
1,1496757379,2466,20,-40,-87,4,1,13,-2
1,1496757380,2467,1,-38,-80,8,1,17,0
1,1496757380,2467,2,-37,-80,4,0,17,0
1,1496757380,2467,3,-36,-81,6,0,17,0
1,1496757380,2467,4,-37,-84,9,1,18,0
1,1496757380,2467,5,-36,-81,9,0,17,0
1,1496757380,2467,6,-45,-83,10,5,15,1
1,1496757380,2467,7,-47,-98,28,41,3,1
1,1496757380,2467,8,-49,-102,14,24,-14,0
1,1496757380,2467,9,-13,-112,0,5,34,-8
1,1496757380,2467,10,-34,-83,19,13,-23,-2
1,1496757380,2467,11,-36,-78,20,-10,13,5
1,1496757380,2467,12,-54,-92,11,0,20,-2
1,1496757380,2467,13,-52,-94,15,5,3,-8
1,1496757380,2467,14,-38,-92,12,3,15,-4
1,1496757380,2467,15,-40,-84,16,0,18,-2
1,1496757380,2467,16,-39,-83,16,3,13,-4
1,1496757380,2467,17,-38,-89,14,1,15,-2
1,1496757380,2467,18,-37,-86,14,3,17,0
1,1496757380,2467,19,-40,-89,14,3,15,-4
1,1496757380,2467,20,-36,-94,12,0,15,-4
1,1496757381,2468,1,-41,-83,20,5,15,-2
1,1496757381,2468,2,-37,-92,13,1,13,0
1,1496757381,2468,3,-35,-83,14,1,15,-2
1,1496757381,2468,4,-36,-90,19,3,11,-2
1,1496757381,2468,5,-33,-96,16,3,13,-2
1,1496757381,2468,6,-34,-94,15,5,15,-2
1,1496757381,2468,7,-34,-102,12,7,15,-4
1,1496757381,2468,8,-29,-94,17,3,11,-6
1,1496757381,2468,9,-32,-101,21,3,13,-4
1,1496757381,2468,10,-30,-101,20,5,15,-4
1,1496757381,2468,11,-27,-95,12,0,15,-2
1,1496757381,2468,12,-29,-96,14,0,11,-2
1,1496757381,2468,13,-27,-97,14,1,13,-2
1,1496757381,2468,14,-27,-98,14,5,13,0
1,1496757381,2468,15,-24,-99,15,1,9,-2
1,1496757381,2468,16,-19,-102,10,0,11,-2
1,1496757381,2468,17,-21,-97,14,1,9,-2
1,1496757381,2468,18,-18,-99,9,0,9,-2
1,1496757381,2468,19,-19,-97,14,1,9,-2
1,1496757381,2468,20,-17,-104,7,0,7,-2
1,1496757382,2469,1,-21,-97,11,0,5,0
1,1496757382,2469,2,-17,-98,7,-2,5,0
1,1496757382,2469,3,-17,-105,12,1,7,0
1,1496757382,2469,4,-15,-99,5,0,5,0
1,1496757382,2469,5,-17,-101,8,0,3,0
1,1496757382,2469,6,-19,-99,6,-2,3,-2
1,1496757382,2469,7,-22,-100,7,0,1,0
1,1496757382,2469,8,-32,-89,7,0,-8,-4
1,1496757382,2469,9,-39,-91,9,0,0,0
1,1496757382,2469,10,-38,-83,7,0,3,1
1,1496757382,2469,11,-33,-89,9,0,3,0
1,1496757382,2469,12,-38,-89,13,0,1,1
1,1496757382,2469,13,-29,-80,0,9,22,-67
1,1496757382,2469,14,121,-109,57,-42,157,11
1,1496757382,2469,15,-31,-92,-5,-8,-99,-12
1,1496757382,2469,16,-29,-96,8,-10,30,0
1,1496757382,2469,17,-35,-87,5,0,5,-2
1,1496757382,2469,18,-39,-100,4,-2,0,-2
1,1496757382,2469,19,-21,-99,3,0,13,-4
1,1496757382,2469,20,-23,-105,11,-2,9,-2
1,1496757383,2470,1,-19,-100,9,1,3,-6
1,1496757383,2470,2,-16,-105,-1,-4,9,-4
1,1496757383,2470,3,-18,-99,3,0,0,-2
1,1496757383,2470,4,-19,-104,-2,0,1,0
1,1496757383,2470,5,-20,-96,-1,0,0,0
1,1496757383,2470,6,-22,-98,-1,0,1,0
1,1496757383,2470,7,-20,-84,4,0,3,0
1,1496757383,2470,8,-19,-83,3,-4,0,0
1,1496757383,2470,9,-27,-87,-2,0,0,0
1,1496757383,2470,10,-23,-108,-5,-2,0,0
1,1496757383,2470,11,-23,-97,-1,0,0,0
1,1496757383,2470,12,-21,-94,-6,-2,0,0
1,1496757383,2470,13,-25,-96,-8,0,0,0
1,1496757383,2470,14,-20,-98,-7,0,0,0
1,1496757383,2470,15,-20,-98,-8,-4,0,0
1,1496757383,2470,16,-22,-104,-7,0,1,0
1,1496757383,2470,17,-17,-114,-9,0,1,0
1,1496757383,2470,18,-19,-96,-9,0,3,0
1,1496757383,2470,19,-21,-97,-8,-2,1,0
1,1496757383,2470,20,-21,-86,-9,0,0,0
1,1496757384,2471,1,-38,-56,-5,9,-10,5
1,1496757384,2471,2,-26,-84,1,7,5,-2
1,1496757384,2471,3,-24,-108,-7,0,7,0
1,1496757384,2471,4,-27,-85,-8,0,5,0
1,1496757384,2471,5,-29,-109,-11,-2,3,0
1,1496757384,2471,6,-29,-94,-10,0,3,0
1,1496757384,2471,7,-29,-95,-16,0,7,0
1,1496757384,2471,8,-32,-96,-12,0,7,0
1,1496757384,2471,9,-32,-93,-11,0,5,0
1,1496757384,2471,10,-37,-94,-11,1,9,0
1,1496757384,2471,11,-40,-101,-15,1,9,0
1,1496757384,2471,12,-39,-86,-12,1,11,0
1,1496757384,2471,13,-37,-87,-10,0,13,0
1,1496757384,2471,14,-44,-101,-11,7,13,1
1,1496757384,2471,15,-38,-93,-9,1,13,0
1,1496757384,2471,16,-36,-93,-6,3,13,0
1,1496757384,2471,17,-37,-86,-7,1,13,0
1,1496757384,2471,18,-38,-84,2,3,15,0
1,1496757384,2471,19,-40,-86,1,3,13,0
1,1496757384,2471,20,-40,-94,-2,1,13,0
1,1496757385,2471,1,-39,-92,0,3,15,-2
1,1496757385,2471,2,-35,-93,-2,1,15,-2
1,1496757385,2471,3,-35,-93,-3,3,15,-2
1,1496757385,2471,4,-33,-97,-2,5,15,-2
1,1496757385,2471,5,-35,-91,-2,5,15,-4
1,1496757385,2471,6,-37,-89,-1,0,13,-2
1,1496757385,2471,7,-38,-94,0,0,13,0
1,1496757385,2471,8,-36,-92,0,1,13,0
1,1496757385,2471,9,-36,-91,3,3,13,-2
1,1496757385,2471,10,-36,-94,2,3,13,-2
1,1496757385,2471,11,-36,-93,4,3,13,-2
1,1496757385,2471,12,-33,-90,3,1,13,-2
1,1496757385,2471,13,-37,-87,-10,0,13,0
1,1496757385,2471,14,-44,-101,-11,7,13,1
1,1496757385,2471,15,-38,-93,-9,1,13,0
1,1496757385,2471,16,-36,-93,-6,3,13,0
1,1496757385,2471,17,-37,-86,-7,1,13,0
1,1496757385,2471,18,-38,-84,2,3,15,0
1,1496757385,2471,19,-40,-86,1,3,13,0
1,1496757385,2471,20,-40,-94,-2,1,13,0
1,1496757385,2472,1,-39,-92,0,3,15,-2
1,1496757385,2472,2,-35,-93,-2,1,15,-2
1,1496757385,2472,3,-35,-93,-3,3,15,-2
1,1496757385,2472,4,-33,-97,-2,5,15,-2
1,1496757385,2472,5,-35,-91,-2,5,15,-4
1,1496757385,2472,6,-37,-89,-1,0,13,-2
1,1496757385,2472,7,-38,-94,0,0,13,0
1,1496757385,2472,8,-36,-92,0,1,13,0
1,1496757385,2472,9,-36,-91,3,3,13,-2
1,1496757385,2472,10,-36,-94,2,3,13,-2
1,1496757385,2472,11,-36,-93,4,3,13,-2
1,1496757385,2472,12,-33,-90,3,1,13,-2
1,1496757385,2472,13,-31,-94,4,3,13,-2
1,1496757385,2472,14,-32,-94,1,1,11,-2
1,1496757385,2472,15,-32,-93,2,1,11,-2
1,1496757385,2472,16,-33,-94,3,0,11,-2
1,1496757385,2472,17,-35,-97,4,1,11,-2
1,1496757385,2472,18,-37,-95,2,1,9,0
1,1496757385,2472,19,-37,-93,0,1,9,0
1,1496757385,2472,20,-35,-93,5,1,11,0
1,1496757386,2473,1,-35,-91,3,1,11,-2
1,1496757386,2473,2,-35,-92,4,1,11,-2
1,1496757386,2473,3,-36,-92,3,1,9,-2
1,1496757386,2473,4,-34,-94,3,1,9,-2
1,1496757386,2473,5,-34,-93,1,0,9,0
1,1496757386,2473,6,-34,-92,3,0,9,0
1,1496757386,2473,7,-35,-94,4,0,9,0
1,1496757386,2473,8,-34,-94,4,0,9,0
1,1496757386,2473,9,-34,-94,5,0,9,0
1,1496757386,2473,10,-33,-92,5,1,9,0
1,1496757386,2473,11,-31,-93,3,0,9,0
1,1496757386,2473,12,-29,-92,5,1,9,0
1,1496757386,2473,13,-28,-94,8,1,7,0
1,1496757386,2473,14,-25,-93,9,1,9,0
1,1496757386,2473,15,-26,-96,10,0,5,-2
1,1496757386,2473,16,-27,-96,7,0,3,-2
1,1496757386,2473,17,-29,-97,6,0,5,0
1,1496757386,2473,18,-29,-95,8,0,5,-2
1,1496757386,2473,19,-28,-93,9,0,5,-2
1,1496757386,2473,20,-24,-94,10,0,5,-2
1,1496757387,2474,1,-27,-99,11,0,3,0
1,1496757387,2474,2,-26,-95,10,0,3,0
1,1496757387,2474,3,-26,-96,9,0,3,-2
1,1496757387,2474,4,-27,-98,9,0,1,0
1,1496757387,2474,5,-29,-96,7,-2,0,0
1,1496757387,2474,6,-31,-98,9,0,0,-2
1,1496757387,2474,7,-31,-96,8,0,0,0
1,1496757387,2474,8,-28,-96,8,0,1,0
1,1496757387,2474,9,-26,-94,9,-2,0,0
1,1496757387,2474,10,-24,-93,9,-2,0,0
1,1496757387,2474,11,-24,-95,11,0,0,0
1,1496757387,2474,12,-24,-100,10,0,0,0
1,1496757387,2474,13,-26,-97,10,-2,-2,0
1,1496757387,2474,14,-26,-97,13,-2,0,0
1,1496757387,2474,15,-25,-97,12,-2,0,0
1,1496757387,2474,16,-26,-94,9,-6,-2,0
1,1496757387,2474,17,-28,-96,11,-2,0,0
1,1496757387,2474,18,-27,-95,8,-2,0,0
1,1496757387,2474,19,-27,-95,4,-2,0,0
1,1496757387,2474,20,-27,-96,5,-2,0,0
1,1496757388,2475,1,-27,-99,5,-2,0,0
1,1496757388,2475,2,-24,-96,3,-4,0,0
1,1496757388,2475,3,-24,-96,6,-2,0,0
1,1496757388,2475,4,-23,-92,8,-4,0,-2
1,1496757388,2475,5,-23,-94,8,-4,0,-4
1,1496757388,2475,6,-23,-97,9,-4,0,-2
1,1496757388,2475,7,-23,-98,10,-2,0,-2
1,1496757388,2475,8,-26,-97,8,0,0,-2
1,1496757388,2475,9,-24,-99,7,0,0,0
1,1496757388,2475,10,-22,-98,1,-4,0,0
1,1496757388,2475,11,-19,-102,0,-4,0,0
1,1496757388,2475,12,-16,-102,0,-4,0,0
1,1496757388,2475,13,-14,-101,2,-2,0,0
1,1496757388,2475,14,-17,-98,3,0,-2,0
1,1496757388,2475,15,-20,-94,3,-4,-2,0
1,1496757388,2475,16,-21,-99,3,0,-6,0
1,1496757388,2475,17,-20,-98,3,0,-4,0
1,1496757388,2475,18,-18,-97,3,-2,-2,0
1,1496757388,2475,19,-18,-100,6,0,0,0
1,1496757388,2475,20,-21,-107,2,-2,0,0
1,1496757389,2476,1,-19,-106,2,-4,0,0
1,1496757389,2476,2,-20,-104,3,-4,-2,0
1,1496757389,2476,3,-15,-97,0,-4,-4,0
1,1496757389,2476,4,-18,-91,3,-6,-4,0
1,1496757389,2476,5,-20,-93,2,-4,-2,0
1,1496757389,2476,6,-20,-102,0,-2,-2,0
1,1496757389,2476,7,-20,-97,3,-2,-2,0
1,1496757389,2476,8,-22,-102,4,-4,-4,0
1,1496757389,2476,9,-20,-96,6,-2,-2,0
1,1496757389,2476,10,-16,-104,2,-2,0,0
1,1496757389,2476,11,-15,-103,2,-4,-2,0
1,1496757389,2476,12,-15,-101,2,-4,0,0
1,1496757389,2476,13,-17,-97,1,-6,-2,0
1,1496757389,2476,14,-17,-94,2,-6,0,-2
1,1496757389,2476,15,-23,-98,4,-2,-4,-6
1,1496757389,2476,16,-22,-99,2,-4,-6,-2
1,1496757389,2476,17,-19,-97,2,-6,-4,0
1,1496757389,2476,18,-13,-95,6,0,0,-2
1,1496757389,2476,19,-9,-100,1,-2,0,0
1,1496757389,2476,20,-9,-95,-4,0,0,0
1,1496757390,2477,1,-10,-108,-4,-2,-2,0
1,1496757390,2477,2,-8,-107,-6,-2,0,0
1,1496757390,2477,3,-11,-101,-5,-2,-2,0
1,1496757390,2477,4,-12,-106,-3,-2,-2,0
1,1496757390,2477,5,-15,-101,-1,-4,-2,0
1,1496757390,2477,6,-17,-100,-2,0,-4,0
1,1496757390,2477,7,-13,-113,-1,0,0,9
1,1496757390,2477,8,-17,-108,0,5,0,9
1,1496757390,2477,9,-15,-106,2,1,3,0
1,1496757390,2477,10,-27,-108,9,11,-2,3
1,1496757390,2477,11,-38,-95,-2,24,-27,11
1,1496757390,2477,12,8,-66,-11,-18,-12,1
1,1496757390,2477,13,-31,-93,9,-10,37,7
1,1496757390,2477,14,-33,-88,10,-10,-8,-4
1,1496757390,2477,15,-34,-88,11,-6,1,-10
1,1496757390,2477,16,-36,-90,15,-2,0,-8
1,1496757390,2477,17,-22,-89,1,-18,0,0
1,1496757390,2477,18,-22,-95,13,-12,-2,0
1,1496757390,2477,19,-28,-90,14,-6,5,0
1,1496757390,2477,20,-34,-94,12,-4,0,-4
1,1496757391,2478,1,-36,-94,10,-4,0,-2
1,1496757391,2478,2,-36,-99,10,-4,0,-2
1,1496757391,2478,3,-35,-89,9,-2,0,0
1,1496757391,2478,4,-38,-93,16,-8,-10,0
1,1496757391,2478,5,-30,-89,-7,-14,-6,1
1,1496757391,2478,6,-37,-89,-4,-16,-4,3
1,1496757391,2478,7,-30,-96,-2,-8,-2,0
1,1496757391,2478,8,-25,-92,6,0,5,-2
1,1496757391,2478,9,-24,-100,4,0,-2,-2
1,1496757391,2478,10,-18,-99,-1,-2,5,-2
1,1496757391,2478,11,-23,-105,3,0,1,-2
1,1496757391,2478,12,-26,-96,4,0,0,-2
1,1496757391,2478,13,-22,-102,-3,-2,1,0
1,1496757391,2478,14,-20,-98,-2,-2,3,0
1,1496757391,2478,15,-25,-99,7,0,0,0
1,1496757391,2478,16,-22,-100,2,-6,0,1
1,1496757391,2478,17,-24,-101,0,-4,0,1
1,1496757391,2478,18,-26,-97,3,-2,1,1
1,1496757391,2478,19,-31,-94,5,0,0,0
1,1496757391,2478,20,-37,-94,7,1,-2,1
1,1496757392,2479,1,-30,-94,3,0,0,-2
1,1496757392,2479,2,-26,-99,-3,-2,1,0
1,1496757392,2479,3,-25,-93,0,-2,1,0
1,1496757392,2479,4,-25,-85,1,0,0,0
1,1496757392,2479,5,-26,-89,-2,0,1,-2
1,1496757392,2479,6,-30,-94,-3,0,0,0
1,1496757392,2479,7,-30,-97,-1,0,1,0
1,1496757392,2479,8,-26,-100,-1,-2,1,1
1,1496757392,2479,9,-33,-94,21,17,11,9
1,1496757392,2479,10,-40,-96,35,66,-2,17
1,1496757392,2479,11,-45,-101,53,-42,1,9
1,1496757392,2479,12,-24,-101,38,-16,85,20
1,1496757392,2479,13,-37,-93,18,9,-31,0
1,1496757392,2479,14,-32,-90,12,-4,0,0
1,1496757392,2479,15,-41,-95,7,1,1,0
1,1496757392,2479,16,-40,-95,5,0,1,-2
1,1496757392,2479,17,-37,-88,5,0,1,0
1,1496757392,2479,18,-36,-85,11,0,1,0
1,1496757392,2479,19,-33,-87,11,0,5,-4
1,1496757392,2479,20,-37,-93,13,0,5,-2
1,1496757392,2480,1,-39,-91,10,0,3,0
1,1496757392,2480,2,-38,-86,13,0,3,-2
1,1496757392,2480,3,-38,-87,11,-4,0,0
1,1496757392,2480,4,-40,-90,14,0,1,0
1,1496757392,2480,5,-41,-87,16,-2,1,0
1,1496757392,2480,6,-42,-90,15,0,0,0
1,1496757392,2480,7,-42,-94,14,0,0,0
1,1496757392,2480,8,-43,-87,16,0,0,0
1,1496757392,2480,9,-40,-85,19,0,1,0
1,1496757392,2480,10,-45,-90,20,0,0,0
1,1496757392,2480,11,-45,-85,27,1,0,0
1,1496757392,2480,12,-42,-87,24,0,0,0
1,1496757392,2480,13,-41,-86,23,0,1,-2
1,1496757392,2480,14,-44,-91,20,0,1,-2
1,1496757392,2480,15,-44,-92,18,0,0,0
1,1496757392,2480,16,-45,-88,20,0,0,0
1,1496757392,2480,17,-41,-87,17,0,0,0
1,1496757392,2480,18,-37,-89,13,-2,0,0
1,1496757392,2480,19,-33,-92,11,-4,0,-2
1,1496757392,2480,20,-33,-91,11,-2,1,-2
1,1496757393,2481,1,-38,-91,14,0,0,-2
1,1496757393,2481,2,-33,-85,12,-4,0,0
1,1496757393,2481,3,-31,-88,12,-4,1,0
1,1496757393,2481,4,43,-73,-28,-27,-180,-18
1,1496757393,2481,5,18,-93,22,-19,75,-8
1,1496757393,2481,6,-41,-98,-11,5,-18,-8
1,1496757393,2481,7,-29,-91,19,-8,-21,0
1,1496757393,2481,8,-30,-90,13,0,17,-2
1,1496757393,2481,9,-29,-90,11,0,0,0
1,1496757393,2481,10,-28,-91,11,0,1,-2
1,1496757393,2481,11,-29,-98,9,0,0,-2
1,1496757393,2481,12,-27,-93,9,-2,0,0
1,1496757393,2481,13,-28,-93,14,0,1,-2
1,1496757393,2481,14,-27,-94,11,0,1,-4
1,1496757393,2481,15,-30,-99,11,0,0,-4
1,1496757393,2481,16,-26,-99,8,0,1,-2
1,1496757393,2481,17,-24,-94,9,-2,1,0
1,1496757393,2481,18,-27,-91,10,-2,0,0
1,1496757393,2481,19,-30,-95,10,-2,0,0
1,1496757393,2481,20,-30,-94,7,-2,1,0
1,1496757394,2482,1,-28,-97,8,0,1,0
1,1496757394,2482,2,-28,-97,6,0,1,0
1,1496757394,2482,3,-27,-93,5,0,1,0
1,1496757394,2482,4,-30,-94,6,0,0,0
1,1496757394,2482,5,-29,-96,7,-2,1,0
1,1496757394,2482,6,-29,-101,7,0,1,0
1,1496757394,2482,7,-26,-96,9,0,1,0
1,1496757394,2482,8,-25,-95,9,0,1,0
1,1496757394,2482,9,-25,-91,10,0,1,0
1,1496757394,2482,10,-26,-96,11,1,3,-4
1,1496757394,2482,11,-27,-95,10,0,3,-4
1,1496757394,2482,12,-29,-99,7,0,3,-2
1,1496757394,2482,13,-26,-98,8,0,3,-2
1,1496757394,2482,14,-25,-96,6,0,3,-2
1,1496757394,2482,15,-25,-97,5,0,1,-2
1,1496757394,2482,16,-25,-93,8,0,1,-2
1,1496757394,2482,17,-29,-97,7,0,1,-2
1,1496757394,2482,18,-28,-95,9,0,1,-2
1,1496757394,2482,19,-27,-94,8,0,3,-2
1,1496757394,2482,20,-26,-96,7,0,3,0
1,1496757395,2482,1,-27,-100,8,0,3,-2
1,1496757395,2482,2,-27,-98,7,-2,3,-2
1,1496757395,2482,3,-27,-98,7,0,3,-2
1,1496757395,2482,4,-27,-96,5,-2,3,0
1,1496757395,2482,5,-30,-94,5,0,3,0
1,1496757395,2482,6,-32,-97,0,-2,1,0
1,1496757395,2482,7,-26,-96,9,0,1,0
1,1496757395,2482,8,-25,-95,9,0,1,0
1,1496757395,2482,9,-25,-91,10,0,1,0
1,1496757395,2482,10,-26,-96,11,1,3,-4
1,1496757395,2482,11,-27,-95,10,0,3,-4
1,1496757395,2482,12,-29,-99,7,0,3,-2
1,1496757395,2482,13,-26,-98,8,0,3,-2
1,1496757395,2482,14,-25,-96,6,0,3,-2
1,1496757395,2482,15,-25,-97,5,0,1,-2
1,1496757395,2482,16,-25,-93,8,0,1,-2
1,1496757395,2482,17,-29,-97,7,0,1,-2
1,1496757395,2482,18,-28,-95,9,0,1,-2
1,1496757395,2482,19,-27,-94,8,0,3,-2
1,1496757395,2482,20,-26,-96,7,0,3,0
1,1496757395,2483,1,-27,-100,8,0,3,-2
1,1496757395,2483,2,-27,-98,7,-2,3,-2
1,1496757395,2483,3,-27,-98,7,0,3,-2
1,1496757395,2483,4,-27,-96,5,-2,3,0
1,1496757395,2483,5,-30,-94,5,0,3,0
1,1496757395,2483,6,-32,-97,0,-2,1,0
1,1496757395,2483,7,-32,-89,1,-2,3,0
1,1496757395,2483,8,-37,-94,-1,0,1,0
1,1496757395,2483,9,-39,-93,-3,0,0,0
1,1496757395,2483,10,-42,-89,-3,-2,7,0
1,1496757395,2483,11,-44,-90,-5,0,9,0
1,1496757395,2483,12,-44,-91,-7,0,11,0
1,1496757395,2483,13,-44,-87,-7,0,11,0
1,1496757395,2483,14,-44,-89,-8,0,11,0
1,1496757395,2483,15,-42,-85,-9,0,13,0
1,1496757395,2483,16,-44,-85,-7,1,15,0
1,1496757395,2483,17,-43,-92,-8,1,17,0
1,1496757395,2483,18,-44,-94,-7,5,18,0
1,1496757395,2483,19,-41,-98,-11,7,18,0
1,1496757395,2483,20,-41,-87,-6,1,17,-2
1,1496757396,2484,1,-50,-91,-11,1,13,-4
1,1496757396,2484,2,-53,-95,-18,1,15,0
1,1496757396,2484,3,-51,-81,-14,0,18,0
1,1496757396,2484,4,-50,-87,-16,1,20,0
1,1496757396,2484,5,-49,-82,-13,3,22,-2
1,1496757396,2484,6,-46,-83,-11,7,26,0
1,1496757396,2484,7,-44,-87,-11,7,24,-2
1,1496757396,2484,8,-41,-92,-13,5,22,-2
1,1496757396,2484,9,-41,-95,-12,7,24,0
1,1496757396,2484,10,-38,-92,-9,5,24,0
1,1496757396,2484,11,-42,-79,-5,3,22,0
1,1496757396,2484,12,-42,-87,-6,7,22,-2
1,1496757396,2484,13,-44,-86,-7,11,22,0
1,1496757396,2484,14,-46,-87,-8,7,20,0
1,1496757396,2484,15,-47,-91,-8,5,22,0
1,1496757396,2484,16,-43,-86,-6,3,24,0
1,1496757396,2484,17,-45,-80,-4,5,24,0
1,1496757396,2484,18,-48,-85,-7,11,24,-2
1,1496757396,2484,19,-52,-87,-10,5,26,-2
1,1496757396,2484,20,-51,-87,-11,7,26,1
1,1496757397,2485,1,-54,-81,-13,3,28,0
1,1496757397,2485,2,-59,-86,-14,5,24,-2
1,1496757397,2485,3,-55,-84,-16,7,24,-2
1,1496757397,2485,4,-56,-96,-15,5,26,0
1,1496757397,2485,5,-52,-82,-11,5,24,0
1,1496757397,2485,6,-50,-91,-10,7,28,0
1,1496757397,2485,7,-49,-90,-12,7,28,0
1,1496757397,2485,8,-52,-84,-10,7,30,0
1,1496757397,2485,9,-53,-84,-11,9,30,0
1,1496757397,2485,10,-50,-82,-11,5,28,0
1,1496757397,2485,11,-53,-81,-14,7,24,-2
1,1496757397,2485,12,-55,-87,-16,7,28,-2
1,1496757397,2485,13,-54,-88,-14,7,28,-2
1,1496757397,2485,14,-53,-90,-9,7,28,-2
1,1496757397,2485,15,-54,-82,-13,7,26,-2
1,1496757397,2485,16,-52,-90,-12,7,26,-2
1,1496757397,2485,17,-53,-77,-14,7,28,-2
1,1496757397,2485,18,-52,-84,-17,9,26,-2
1,1496757397,2485,19,-54,-84,-13,7,28,-4
1,1496757397,2485,20,-59,-83,-9,9,28,-2
1,1496757398,2486,1,-58,-89,-16,7,28,0
1,1496757398,2486,2,-57,-82,-14,11,26,0
1,1496757398,2486,3,-60,-85,-15,7,30,0
1,1496757398,2486,4,-60,-88,-14,9,28,0
1,1496757398,2486,5,-61,-89,-12,5,30,0
1,1496757398,2486,6,-56,-87,-12,9,32,0
1,1496757398,2486,7,-62,-86,-10,9,30,0
1,1496757398,2486,8,-59,-84,-13,11,30,-2
1,1496757398,2486,9,-59,-91,-17,11,32,-4
1,1496757398,2486,10,-60,-74,-12,13,30,-6
1,1496757398,2486,11,-61,-83,-23,7,28,-4
1,1496757398,2486,12,-65,-79,-18,7,26,-2
1,1496757398,2486,13,-66,-82,-16,13,30,-4
1,1496757398,2486,14,-64,-82,-12,13,30,-2
1,1496757398,2486,15,-61,-83,-14,11,30,-4
1,1496757398,2486,16,-65,-92,-18,7,28,-2
1,1496757398,2486,17,-66,-88,-19,11,30,-2
1,1496757398,2486,18,-63,-89,-16,11,30,-2
1,1496757398,2486,19,-60,-86,-15,11,30,-4
1,1496757398,2486,20,-68,-75,-12,9,28,-2
1,1496757399,2487,1,-61,-80,-17,7,30,-2
1,1496757399,2487,2,-59,-78,-18,7,30,-2
1,1496757399,2487,3,-58,-80,-15,9,28,-2
1,1496757399,2487,4,-64,-79,-12,11,28,-4
1,1496757399,2487,5,-67,-84,-7,13,26,-4
1,1496757399,2487,6,-69,-83,-16,9,28,-4
1,1496757399,2487,7,-66,-82,-16,7,32,-4
1,1496757399,2487,8,-67,-84,-14,7,28,-2
1,1496757399,2487,9,-57,-79,-19,7,30,-4
1,1496757399,2487,10,-63,-81,-11,11,28,-6
1,1496757399,2487,11,-63,-85,-10,9,24,-6
1,1496757399,2487,12,-54,-77,-8,7,28,-4
1,1496757399,2487,13,-54,-88,-9,11,28,-6
1,1496757399,2487,14,-52,-76,0,9,26,-6
1,1496757399,2487,15,-54,-86,2,9,24,-8
1,1496757399,2487,16,-56,-98,-2,7,22,-6
1,1496757399,2487,17,-46,-100,-1,9,20,-2
1,1496757399,2487,18,-42,-95,-3,5,22,-2
1,1496757399,2487,19,-38,-98,-1,7,20,-6
1,1496757399,2487,20,-29,-107,-8,3,22,-6
1,1496757400,2488,1,-33,-94,0,7,18,-8
1,1496757400,2488,2,-33,-96,9,3,17,-8
1,1496757400,2488,3,-30,-98,11,1,15,-6
1,1496757400,2488,4,-32,-93,8,3,17,-6
1,1496757400,2488,5,-33,-94,6,1,13,-2
1,1496757400,2488,6,-35,-93,3,1,13,-2
1,1496757400,2488,7,-39,-93,7,1,13,-2
1,1496757400,2488,8,-40,-100,0,0,11,0
1,1496757400,2488,9,-39,-93,0,0,11,0
1,1496757400,2488,10,-37,-94,-1,0,13,0
1,1496757400,2488,11,-45,-86,3,0,11,-2
1,1496757400,2488,12,-43,-86,-2,0,11,-2
1,1496757400,2488,13,-42,-87,-3,0,11,0
1,1496757400,2488,14,-44,-95,0,1,11,0
1,1496757400,2488,15,-40,-89,-1,0,11,0
1,1496757400,2488,16,-41,-90,3,0,11,-2
1,1496757400,2488,17,-40,-88,3,0,11,-2
1,1496757400,2488,18,-35,-88,0,0,11,-2
1,1496757400,2488,19,-31,-99,-1,0,11,-2
1,1496757400,2488,20,-33,-89,1,3,13,-4
1,1496757401,2489,1,-34,-91,5,0,7,-4
1,1496757401,2489,2,-32,-101,5,0,7,-8
1,1496757401,2489,3,-32,-93,11,0,7,-4
1,1496757401,2489,4,-31,-96,8,0,3,0
1,1496757401,2489,5,-31,-96,9,0,3,0
1,1496757401,2489,6,-33,-97,3,0,3,0
1,1496757401,2489,7,-27,-107,-6,-2,3,0
1,1496757401,2489,8,-26,-100,-3,-4,7,1
1,1496757401,2489,9,-33,-96,1,-2,0,0
1,1496757401,2489,10,-33,-83,6,0,3,0
1,1496757401,2489,11,-33,-88,6,-2,3,0
1,1496757401,2489,12,-28,-85,4,1,7,3
1,1496757401,2489,13,-27,-114,0,0,0,5
1,1496757401,2489,14,-26,-100,11,0,0,0
1,1496757401,2489,15,-30,-92,8,-2,0,0
1,1496757401,2489,16,-32,-93,9,-4,0,0
1,1496757401,2489,17,-35,-92,8,0,0,0
1,1496757401,2489,18,-29,-90,8,-2,3,0
1,1496757401,2489,19,-29,-91,3,0,1,0
1,1496757401,2489,20,-30,-100,3,0,1,0
1,1496757402,2490,1,-33,-89,4,-2,1,0
1,1496757402,2490,2,-37,-93,6,-2,0,0
1,1496757402,2490,3,-31,-93,2,-2,1,0
1,1496757402,2490,4,-30,-89,6,-2,3,0
1,1496757402,2490,5,-28,-103,0,-2,1,0
1,1496757402,2490,6,-31,-99,3,0,3,0
1,1496757402,2490,7,-34,-87,7,-2,1,0
1,1496757402,2490,8,-38,-91,7,0,0,0
1,1496757402,2490,9,-35,-95,8,-4,0,1
1,1496757402,2490,10,-31,-93,9,0,0,1
1,1496757402,2490,11,-26,-97,5,0,3,5
1,1496757402,2490,12,-29,-95,0,-4,-4,3
1,1496757402,2490,13,-33,-93,6,-2,0,0
1,1496757402,2490,14,-33,-89,8,0,0,0
1,1496757402,2490,15,-33,-89,6,-2,0,0
1,1496757402,2490,16,-36,-92,9,0,0,0
1,1496757402,2490,17,-35,-95,8,0,0,0
1,1496757402,2490,18,-36,-95,8,-2,0,0
1,1496757402,2490,19,-32,-97,9,0,1,0
1,1496757402,2490,20,-35,-91,9,0,1,0
1,1496757403,2491,1,-36,-93,9,0,0,0
1,1496757403,2491,2,-36,-89,7,-4,-2,0
1,1496757403,2491,3,-38,-91,7,-2,-2,0
1,1496757403,2491,4,-35,-90,5,-4,0,0
1,1496757403,2491,5,-35,-93,9,-2,0,0
1,1496757403,2491,6,-35,-93,11,0,0,0
1,1496757403,2491,7,-43,-79,17,0,1,0
1,1496757403,2491,8,-46,-87,16,-2,0,0
1,1496757403,2491,9,-37,-93,14,0,1,0
1,1496757403,2491,10,-36,-97,10,0,0,0
1,1496757403,2491,11,-36,-95,8,-2,0,0
1,1496757403,2491,12,-37,-96,7,-2,0,0
1,1496757403,2491,13,-37,-90,11,0,0,-2
1,1496757403,2491,14,-43,-87,12,0,1,-2
1,1496757403,2491,15,-44,-90,14,-2,0,0
1,1496757403,2491,16,-40,-87,9,0,1,0
1,1496757403,2491,17,-35,-95,4,0,1,0
1,1496757403,2491,18,-37,-92,9,0,1,0
1,1496757403,2491,19,-38,-89,9,0,1,0
1,1496757403,2491,20,-43,-84,10,-2,0,-2
1,1496757404,2492,1,-48,-87,13,0,-2,-2
1,1496757404,2492,2,-42,-95,6,0,0,0
1,1496757404,2492,3,-35,-92,8,-2,3,0
1,1496757404,2492,4,-40,-92,6,0,1,0
1,1496757404,2492,5,-42,-88,7,-2,0,0
1,1496757404,2492,6,-45,-87,11,-4,0,0
1,1496757404,2492,7,-43,-91,9,-4,0,0
1,1496757404,2492,8,-41,-92,7,-2,0,0
1,1496757404,2492,9,-41,-91,11,0,1,0
1,1496757404,2492,10,-37,-91,8,-2,0,0
1,1496757404,2492,11,-38,-90,4,0,0,0
1,1496757404,2492,12,-34,-97,3,0,1,0
1,1496757404,2492,13,-32,-94,3,-2,1,0
1,1496757404,2492,14,-33,-90,7,0,1,0
1,1496757404,2492,15,-35,-88,6,0,1,0
1,1496757404,2492,16,-34,-95,6,0,1,0
1,1496757404,2492,17,-38,-86,9,0,1,0
1,1496757404,2492,18,-41,-88,10,0,0,0
1,1496757404,2492,19,-38,-97,2,0,1,0
1,1496757404,2492,20,-36,-95,4,-2,0,0
1,1496757405,2492,1,-39,-95,4,-2,0,0
1,1496757405,2492,2,-36,-94,7,0,1,0
1,1496757405,2492,3,-30,-96,5,-2,3,0
1,1496757405,2492,4,-30,-95,6,-2,3,0
1,1496757405,2492,5,-36,-96,10,0,1,-2
1,1496757405,2492,6,-32,-96,8,0,1,-2
1,1496757405,2492,7,-33,-90,5,0,1,0
1,1496757405,2492,8,-34,-93,1,-2,0,0
1,1496757405,2492,9,-37,-88,3,-4,0,0
1,1496757405,2492,10,-39,-92,9,-2,0,0
1,1496757405,2492,11,-35,-93,5,-6,0,1
1,1496757405,2492,12,-36,-90,4,-4,0,0
1,1496757405,2492,13,-37,-91,8,0,1,0
1,1496757405,2492,14,-38,-92,8,0,3,-2
1,1496757405,2492,15,-33,-93,11,0,5,-2
1,1496757405,2492,16,-37,-94,6,0,3,0
1,1496757405,2492,17,-35,-85,8,0,3,0
1,1496757405,2492,18,-41,-94,-3,-2,-10,0
1,1496757405,2492,19,-39,-89,-5,-8,-8,0
1,1496757405,2492,20,-36,-95,4,-2,0,0
1,1496757405,2493,1,-39,-95,4,-2,0,0
1,1496757405,2493,2,-36,-94,7,0,1,0
1,1496757405,2493,3,-30,-96,5,-2,3,0
1,1496757405,2493,4,-30,-95,6,-2,3,0
1,1496757405,2493,5,-36,-96,10,0,1,-2
1,1496757405,2493,6,-32,-96,8,0,1,-2
1,1496757405,2493,7,-33,-90,5,0,1,0
1,1496757405,2493,8,-34,-93,1,-2,0,0
1,1496757405,2493,9,-37,-88,3,-4,0,0
1,1496757405,2493,10,-39,-92,9,-2,0,0
1,1496757405,2493,11,-35,-93,5,-6,0,1
1,1496757405,2493,12,-36,-90,4,-4,0,0
1,1496757405,2493,13,-37,-91,8,0,1,0
1,1496757405,2493,14,-38,-92,8,0,3,-2
1,1496757405,2493,15,-33,-93,11,0,5,-2
1,1496757405,2493,16,-37,-94,6,0,3,0
1,1496757405,2493,17,-35,-85,8,0,3,0
1,1496757405,2493,18,-41,-94,-3,-2,-10,0
1,1496757405,2493,19,-39,-89,-5,-8,-8,0
1,1496757405,2493,20,-39,-82,1,-6,-6,0
1,1496757406,2494,1,-37,-98,6,-2,0,0
1,1496757406,2494,2,-36,-93,8,0,3,0
1,1496757406,2494,3,-36,-90,7,0,1,0
1,1496757406,2494,4,-39,-90,8,0,1,0
1,1496757406,2494,5,-39,-94,8,0,5,-2
1,1496757406,2494,6,-35,-92,5,0,3,0
1,1496757406,2494,7,-34,-93,5,0,7,0
1,1496757406,2494,8,-34,-90,5,0,7,0
1,1496757406,2494,9,-38,-93,3,0,5,0
1,1496757406,2494,10,-41,-94,2,0,5,-2
1,1496757406,2494,11,-38,-92,0,0,5,0
1,1496757406,2494,12,-43,-99,-4,0,3,0
1,1496757406,2494,13,-44,-91,-6,-2,1,0
1,1496757406,2494,14,-46,-92,0,-4,1,0
1,1496757406,2494,15,-43,-93,0,-2,5,0
1,1496757406,2494,16,-45,-88,1,0,5,0
1,1496757406,2494,17,-40,-81,-2,0,7,0
1,1496757406,2494,18,-48,-92,-3,1,3,0
1,1496757406,2494,19,-46,-87,-1,0,7,0
1,1496757406,2494,20,-42,-90,-1,0,7,0
1,1496757407,2495,1,-39,-93,0,0,7,0
1,1496757407,2495,2,-41,-86,-4,0,9,0
1,1496757407,2495,3,-43,-83,-3,1,7,0
1,1496757407,2495,4,-51,-89,-6,3,5,-2
1,1496757407,2495,5,-53,-83,-11,-2,1,0
1,1496757407,2495,6,-56,-86,-13,-6,-4,0
1,1496757407,2495,7,-55,-88,-22,-4,3,0
1,1496757407,2495,8,-51,-88,-15,-4,5,1
1,1496757407,2495,9,-55,-83,-12,1,7,0
1,1496757407,2495,10,-49,-83,-10,0,9,0
1,1496757407,2495,11,-46,-86,-10,0,9,0
1,1496757407,2495,12,-47,-93,-8,1,11,0
1,1496757407,2495,13,-46,-88,-5,0,9,0
1,1496757407,2495,14,-48,-95,-8,1,11,0
1,1496757407,2495,15,-43,-83,-11,1,13,0
1,1496757407,2495,16,-47,-82,-10,3,11,0
1,1496757407,2495,17,-50,-98,-13,0,9,0
1,1496757407,2495,18,-50,-101,-12,0,9,0
1,1496757407,2495,19,-45,-88,-14,1,13,0
1,1496757407,2495,20,-52,-83,-11,5,11,-2
1,1496757407,2496,1,-54,-92,-10,0,9,0
1,1496757407,2496,2,-48,-81,-13,3,13,0
1,1496757407,2496,3,-50,-78,-14,1,9,0
1,1496757407,2496,4,-50,-85,-13,0,13,0
1,1496757407,2496,5,-50,-90,-9,1,11,0
1,1496757407,2496,6,-52,-93,-6,0,9,0
1,1496757407,2496,7,-46,-88,-12,0,13,0
1,1496757407,2496,8,-51,-87,-13,-2,9,0
1,1496757407,2496,9,-51,-98,-7,0,9,0
1,1496757407,2496,10,-46,-86,-10,0,7,0
1,1496757407,2496,11,-48,-85,-16,0,11,-2
1,1496757407,2496,12,-52,-85,-9,0,11,0
1,1496757407,2496,13,-46,-78,-9,1,13,0
1,1496757407,2496,14,-48,-86,-14,1,11,0
1,1496757407,2496,15,-47,-92,-12,3,11,0
1,1496757407,2496,16,-49,-97,-9,3,9,0
1,1496757407,2496,17,-48,-90,-10,1,11,0
1,1496757407,2496,18,-47,-88,-12,1,11,0
1,1496757407,2496,19,-50,-91,-9,3,9,0
1,1496757407,2496,20,-48,-83,-14,0,9,0
1,1496757408,2497,1,-48,-81,-11,1,11,0
1,1496757408,2497,2,-50,-95,-7,1,9,-2
1,1496757408,2497,3,-49,-93,-7,0,9,-2
1,1496757408,2497,4,-49,-101,-10,0,7,-2
1,1496757408,2497,5,-48,-75,-15,-2,15,1
1,1496757408,2497,6,-43,-86,7,-4,5,0
1,1496757408,2497,7,-37,-90,8,1,7,0
1,1496757408,2497,8,-41,-89,3,0,41,-2
1,1496757408,2497,9,-45,-94,-1,9,13,-6
1,1496757408,2497,10,-51,-86,-19,1,0,-4
1,1496757408,2497,11,-56,-94,-12,-2,-6,0
1,1496757408,2497,12,-43,-96,-18,0,-2,-2
1,1496757408,2497,13,-45,-92,0,-4,9,0
1,1496757408,2497,14,-39,-107,0,-4,1,0
1,1496757408,2497,15,-41,-87,-2,-12,18,7
1,1496757408,2497,16,-36,-82,0,-4,18,0
1,1496757408,2497,17,-43,-89,-4,-6,5,3
1,1496757408,2497,18,-41,-93,-1,-2,13,1
1,1496757408,2497,19,-39,-92,-1,0,15,1
1,1496757408,2497,20,-45,-93,-4,0,7,0
1,1496757409,2498,1,-44,-91,-6,0,9,0
1,1496757409,2498,2,-44,-94,-5,1,9,0
1,1496757409,2498,3,-44,-84,-10,0,7,0
1,1496757409,2498,4,-47,-92,-4,0,7,0
1,1496757409,2498,5,-45,-87,-4,0,7,0
1,1496757409,2498,6,-45,-95,-6,0,7,0
1,1496757409,2498,7,-43,-89,-6,0,9,0
1,1496757409,2498,8,-43,-83,-4,0,9,0
1,1496757409,2498,9,-44,-88,-5,0,9,-2
1,1496757409,2498,10,-42,-89,-5,0,9,-2
1,1496757409,2498,11,-44,-81,-4,0,9,0
1,1496757409,2498,12,-45,-87,-6,0,9,0
1,1496757409,2498,13,-46,-92,-3,1,9,-2
1,1496757409,2498,14,-46,-87,-7,1,9,0
1,1496757409,2498,15,-47,-91,-6,1,7,0
1,1496757409,2498,16,-46,-85,-8,0,7,0
1,1496757409,2498,17,-42,-92,-8,0,9,0
1,1496757409,2498,18,-41,-89,-7,0,7,0
1,1496757409,2498,19,-41,-95,-5,1,9,0
1,1496757409,2498,20,-37,-87,0,0,9,0
1,1496757410,2499,1,-37,-92,-2,0,3,-2
1,1496757410,2499,2,-34,-88,2,0,3,-2
1,1496757410,2499,3,-35,-94,0,0,3,-2
1,1496757410,2499,4,-36,-93,1,0,3,0
1,1496757410,2499,5,-39,-93,0,0,3,0
1,1496757410,2499,6,-38,-90,2,0,3,0
1,1496757410,2499,7,-39,-89,0,0,3,0
1,1496757410,2499,8,-39,-95,-1,0,3,0
1,1496757410,2499,9,-40,-97,1,0,3,0
1,1496757410,2499,10,-39,-92,3,0,5,0
1,1496757410,2499,11,-41,-90,1,0,5,0
1,1496757410,2499,12,-36,-90,2,-2,3,0
1,1496757410,2499,13,-37,-90,3,0,3,-2
1,1496757410,2499,14,-35,-93,1,0,3,-2
1,1496757410,2499,15,-36,-95,3,0,1,0
1,1496757410,2499,16,-36,-99,0,0,1,0
1,1496757410,2499,17,-36,-86,0,-2,3,0
1,1496757410,2499,18,-38,-91,1,0,3,0
1,1496757410,2499,19,-38,-90,0,0,3,0
1,1496757410,2499,20,-39,-92,-1,-2,3,0
1,1496757411,2500,1,-38,-93,2,-2,3,0
1,1496757411,2500,2,-36,-87,3,0,3,0
1,1496757411,2500,3,-34,-99,0,0,3,-2
1,1496757411,2500,4,-37,-91,1,0,3,0
1,1496757411,2500,5,-36,-92,2,0,1,0
1,1496757411,2500,6,-36,-90,3,0,3,0
1,1496757411,2500,7,-34,-89,1,-2,3,0
1,1496757411,2500,8,-36,-88,-1,-2,1,0
1,1496757411,2500,9,-38,-93,1,-2,1,0
1,1496757411,2500,10,-36,-89,2,-2,1,0
1,1496757411,2500,11,-32,-88,0,-2,3,0
1,1496757411,2500,12,-30,-88,3,0,1,0
1,1496757411,2500,13,-30,-89,2,0,3,-2
1,1496757411,2500,14,-31,-90,4,0,3,-2
1,1496757411,2500,15,-34,-94,5,0,1,0
1,1496757411,2500,16,-31,-97,4,0,1,0
1,1496757411,2500,17,-29,-94,5,0,3,-2
1,1496757411,2500,18,-32,-98,8,0,1,0
1,1496757411,2500,19,-30,-90,6,0,0,-2
1,1496757411,2500,20,-29,-91,2,-2,1,0
1,1496757412,2501,1,-29,-92,0,0,0,0
1,1496757412,2501,2,-30,-92,4,-2,0,0
1,1496757412,2501,3,-29,-101,2,0,1,0
1,1496757412,2501,4,-30,-88,2,0,1,1
1,1496757412,2501,5,-32,-95,6,0,0,3
1,1496757412,2501,6,-18,-82,3,5,43,17
1,1496757412,2501,7,-37,-92,-16,60,-36,9
1,1496757412,2501,8,-14,-80,-11,1,9,18
1,1496757412,2501,9,-37,-87,4,5,-8,-4
1,1496757412,2501,10,-38,-89,9,-2,1,-2
1,1496757412,2501,11,-40,-94,9,-6,1,-6
1,1496757412,2501,12,-38,-97,7,-8,1,-12
1,1496757412,2501,13,-37,-92,11,-10,1,-14
1,1496757412,2501,14,-34,-85,2,-10,17,0
1,1496757412,2501,15,-36,-100,4,-2,1,-4
1,1496757412,2501,16,-41,-98,4,-4,0,-4
1,1496757412,2501,17,-38,-98,5,-2,1,0
1,1496757412,2501,18,-36,-90,7,0,0,0
1,1496757412,2501,19,-37,-97,6,0,1,-2
1,1496757412,2501,20,-38,-92,12,0,1,-2
1,1496757414,2503,1,-33,-94,3,0,3,0
1,1496757414,2503,2,-38,-92,-2,0,1,0
1,1496757414,2503,3,-40,-98,0,0,1,0
1,1496757414,2503,4,-36,-95,7,1,3,0
1,1496757414,2503,5,-33,-95,7,0,1,0
1,1496757414,2503,6,-35,-94,5,0,1,0
1,1496757414,2503,7,-37,-94,9,1,1,0
1,1496757414,2503,8,-37,-88,9,0,3,0
1,1496757414,2503,9,-38,-98,13,9,3,0
1,1496757414,2503,10,-54,-91,-3,34,-21,0
1,1496757414,2503,11,-49,-90,11,26,-10,36
1,1496757414,2503,12,-58,-85,-2,0,-82,13
1,1496757414,2503,13,-5,-77,12,-12,30,17
1,1496757414,2503,14,-50,-100,22,-8,28,1
1,1496757414,2503,15,-39,-92,4,-6,1,0
1,1496757414,2503,16,-38,-90,11,0,3,0
1,1496757414,2503,17,-42,-91,12,0,0,0
1,1496757414,2503,18,-39,-86,2,-4,0,0
1,1496757414,2503,19,-44,-90,15,3,3,-4
1,1496757414,2503,20,-41,-88,7,0,5,0
1,1496757415,2503,1,-46,-90,5,0,-4,0
1,1496757415,2503,2,-46,-89,8,0,-4,0
1,1496757415,2503,3,-53,-84,21,1,1,0
1,1496757415,2503,4,-52,-82,18,0,0,0
1,1496757415,2503,5,-41,-84,15,-2,5,0
1,1496757415,2503,6,-46,-92,8,-2,0,0
1,1496757415,2503,7,-52,-92,17,1,0,0
1,1496757415,2503,8,-53,-79,23,0,1,0
1,1496757415,2503,9,-50,-79,21,-4,3,-2
1,1496757415,2503,10,-51,-87,20,0,1,0
1,1496757415,2503,11,-47,-91,12,0,0,0
1,1496757415,2503,12,-46,-92,14,0,3,0
1,1496757415,2503,13,-46,-93,19,0,0,-2
1,1496757415,2503,14,-50,-100,22,-8,28,1
1,1496757415,2503,15,-39,-92,4,-6,1,0
1,1496757415,2503,16,-38,-90,11,0,3,0
1,1496757415,2503,17,-42,-91,12,0,0,0
1,1496757415,2503,18,-39,-86,2,-4,0,0
1,1496757415,2503,19,-44,-90,15,3,3,-4
1,1496757415,2503,20,-41,-88,7,0,5,0
1,1496757415,2504,1,-46,-90,5,0,-4,0
1,1496757415,2504,2,-46,-89,8,0,-4,0
1,1496757415,2504,3,-53,-84,21,1,1,0
1,1496757415,2504,4,-52,-82,18,0,0,0
1,1496757415,2504,5,-41,-84,15,-2,5,0
1,1496757415,2504,6,-46,-92,8,-2,0,0
1,1496757415,2504,7,-52,-92,17,1,0,0
1,1496757415,2504,8,-53,-79,23,0,1,0
1,1496757415,2504,9,-50,-79,21,-4,3,-2
1,1496757415,2504,10,-51,-87,20,0,1,0
1,1496757415,2504,11,-47,-91,12,0,0,0
1,1496757415,2504,12,-46,-92,14,0,3,0
1,1496757415,2504,13,-46,-93,19,0,0,-2
1,1496757415,2504,14,-85,-84,65,113,-38,3
1,1496757415,2504,15,-28,-73,2,-19,-6,-2
1,1496757415,2504,16,-47,-87,1,-8,-10,0
1,1496757415,2504,17,-43,-84,0,-8,0,-2
1,1496757415,2504,18,-52,-83,8,0,0,3
1,1496757415,2504,19,-50,-85,4,-2,3,0
1,1496757415,2504,20,-43,-83,5,-4,5,0
1,1496757416,2505,1,-46,-89,3,-4,3,0
1,1496757416,2505,2,-47,-83,8,0,5,0
1,1496757416,2505,3,-48,-85,13,0,5,-2
1,1496757416,2505,4,-47,-84,8,1,5,0
1,1496757416,2505,5,-49,-89,9,3,5,0
1,1496757416,2505,6,-46,-86,12,0,3,-2
1,1496757416,2505,7,-44,-84,10,0,5,0
1,1496757416,2505,8,-49,-93,5,0,3,0
1,1496757416,2505,9,-60,-102,4,-44,-36,-55
1,1496757416,2505,10,16,-78,-36,-12,90,-35
1,1496757416,2505,11,-52,-91,-19,17,-8,-2
1,1496757416,2505,12,-48,-84,3,5,-38,-8
1,1496757416,2505,13,-47,-87,0,0,11,-2
1,1496757416,2505,14,-53,-86,0,0,1,-2
1,1496757416,2505,15,-46,-87,-6,-2,9,0
1,1496757416,2505,16,-46,-84,-5,-2,9,0
1,1496757416,2505,17,-47,-86,2,0,5,0
1,1496757416,2505,18,-48,-90,0,1,3,0
1,1496757416,2505,19,-44,-89,-3,0,5,-2
1,1496757416,2505,20,-47,-87,0,0,7,0
1,1496757417,2506,1,-44,-90,-1,-2,9,0
1,1496757417,2506,2,-43,-83,1,-2,9,0
1,1496757417,2506,3,-46,-91,-1,0,7,-2
1,1496757417,2506,4,-48,-92,0,1,7,-2
1,1496757417,2506,5,-46,-87,-2,-2,7,0
1,1496757417,2506,6,-45,-86,-3,0,7,0
1,1496757417,2506,7,-46,-86,0,1,7,0
1,1496757417,2506,8,-48,-90,-2,5,7,0
1,1496757417,2506,9,-41,-91,-7,3,9,3
1,1496757417,2506,10,-47,-88,-15,0,0,0
1,1496757417,2506,11,-66,-101,8,20,-14,17
1,1496757417,2506,12,-35,-90,-9,-91,5,180
1,1496757417,2506,13,-66,-125,-10,-29,5,-59
1,1496757417,2506,14,-44,-93,-9,28,-23,-12
1,1496757417,2506,15,-46,-86,6,11,5,0
1,1496757417,2506,16,-44,-84,7,5,11,-4
1,1496757417,2506,17,-44,-89,-8,-6,7,0
1,1496757417,2506,18,-48,-93,-10,-6,3,0
1,1496757417,2506,19,-56,-83,-7,7,0,-6
1,1496757417,2506,20,-69,-79,-8,-4,-8,-2
1,1496757418,2507,1,-59,-74,-2,3,-2,0
1,1496757418,2507,2,-62,-85,10,1,0,0
1,1496757418,2507,3,-55,-73,10,0,15,-2
1,1496757418,2507,4,-50,-81,9,-4,9,0
1,1496757418,2507,5,-58,-85,13,5,9,0
1,1496757418,2507,6,-57,-83,9,0,9,0
1,1496757418,2507,7,-60,-81,14,1,9,-2
1,1496757418,2507,8,-61,-85,7,1,7,0
1,1496757418,2507,9,-61,-80,13,0,9,-2
1,1496757418,2507,10,-61,-72,11,1,7,0
1,1496757418,2507,11,-61,-75,18,0,7,-2
1,1496757418,2507,12,-66,-85,14,1,3,0
1,1496757418,2507,13,-59,-80,15,0,5,0
1,1496757418,2507,14,-59,-78,16,1,7,0
1,1496757418,2507,15,-60,-78,15,3,7,0
1,1496757418,2507,16,-62,-79,15,0,5,0
1,1496757418,2507,17,-60,-83,14,0,1,0
1,1496757418,2507,18,-61,-82,21,0,3,-2
1,1496757418,2507,19,-51,-76,15,0,7,-2
1,1496757418,2507,20,-56,-81,14,0,5,0
1,1496757419,2508,1,-55,-78,19,1,7,-2
1,1496757419,2508,2,-55,-84,20,1,5,0
1,1496757419,2508,3,-58,-82,15,0,1,0
1,1496757419,2508,4,-57,-83,17,0,3,0
1,1496757419,2508,5,-54,-85,21,1,5,0
1,1496757419,2508,6,-50,-81,22,3,5,-2
1,1496757419,2508,7,-52,-82,27,5,3,-4
1,1496757419,2508,8,-50,-89,7,-2,0,-2
1,1496757419,2508,9,-52,-86,12,1,5,0
1,1496757419,2508,10,-55,-84,15,0,3,-2
1,1496757419,2508,11,-53,-82,20,1,7,-2
1,1496757419,2508,12,-58,-85,23,7,3,0
1,1496757419,2508,13,-47,-83,16,0,5,-2
1,1496757419,2508,14,-48,-83,18,1,5,-2
1,1496757419,2508,15,-46,-85,17,0,3,-2
1,1496757419,2508,16,-46,-81,21,1,3,-2
1,1496757419,2508,17,-47,-84,21,0,3,-2
1,1496757419,2508,18,-48,-84,25,1,3,-2
1,1496757419,2508,19,-46,-85,21,0,1,-2
1,1496757419,2508,20,-45,-88,24,1,3,-2
1,1496757421,2510,1,-38,-87,11,-2,0,0
1,1496757421,2510,2,-40,-89,14,0,1,0
1,1496757421,2510,3,-40,-90,13,0,0,0
1,1496757421,2510,4,-39,-86,15,0,1,0
1,1496757421,2510,5,-44,-87,15,1,0,0
1,1496757421,2510,6,-44,-89,15,0,0,0
1,1496757421,2510,7,-42,-89,14,-2,0,0
1,1496757421,2510,8,-39,-88,14,-4,0,0
1,1496757421,2510,9,-40,-88,14,-2,0,0
1,1496757421,2510,10,-43,-92,13,0,1,0
1,1496757421,2510,11,-42,-87,14,-4,1,0
1,1496757421,2510,12,-44,-89,16,0,0,0
1,1496757421,2510,13,-41,-88,15,-2,1,0
1,1496757421,2510,14,-45,-85,15,-4,0,0
1,1496757421,2510,15,-42,-87,15,-2,1,0
1,1496757421,2510,16,-46,-87,16,0,0,0
1,1496757421,2510,17,-43,-85,12,-2,0,0
1,1496757421,2510,18,-41,-86,15,-2,0,0
1,1496757421,2510,19,-42,-88,16,0,1,0
1,1496757421,2510,20,-42,-94,13,0,1,0
1,1496757422,2511,1,-59,-117,21,0,0,-2
1,1496757422,2511,2,-50,-96,17,-8,0,0
1,1496757422,2511,3,-40,-94,9,-6,3,-2
1,1496757422,2511,4,-2,92,-17,-160,-180,180
1,1496757422,2511,5,94,-36,-99,-91,73,87
1,1496757422,2511,6,6,-75,8,11,-52,0
1,1496757422,2511,7,-23,-97,27,0,-31,-6
1,1496757422,2511,8,-41,-88,9,0,9,-2
1,1496757422,2511,9,-44,-99,16,7,-18,0
1,1496757422,2511,10,-41,-102,11,0,0,1
1,1496757422,2511,11,-41,-107,13,-2,0,1
1,1496757422,2511,12,90,77,-76,104,-180,-108
1,1496757422,2511,13,-67,-113,67,-4,36,-16
1,1496757422,2511,14,-48,-94,12,5,30,-6
1,1496757422,2511,15,-44,-101,12,3,7,-2
1,1496757422,2511,16,-41,-85,17,7,0,1
1,1496757422,2511,17,-20,-74,3,-2,7,1
1,1496757422,2511,18,-30,-78,5,-6,-8,-2
1,1496757422,2511,19,-28,-79,0,-8,7,-6
1,1496757422,2511,20,-46,-93,0,-2,-8,-14
1,1496757422,2512,1,-43,-92,0,-8,1,-4
1,1496757422,2512,2,-33,-92,8,-6,0,-2
1,1496757422,2512,3,-27,-102,4,-6,0,-2
1,1496757422,2512,4,-28,-98,7,-2,0,-2
1,1496757422,2512,5,-35,-94,5,-2,-2,-2
1,1496757422,2512,6,-36,-89,5,-2,0,0
1,1496757422,2512,7,-34,-90,5,-4,3,-2
1,1496757422,2512,8,-38,-96,6,-4,-2,-2
1,1496757422,2512,9,-24,-95,0,-2,3,0
1,1496757422,2512,10,-27,-95,2,-2,0,0
1,1496757422,2512,11,-26,-99,2,-2,0,-2
1,1496757422,2512,12,-24,-99,0,-4,0,0
1,1496757422,2512,13,-23,-99,-3,-2,0,0
1,1496757422,2512,14,-16,-97,-3,-4,1,-2
1,1496757422,2512,15,-15,-100,-5,-4,3,0
1,1496757422,2512,16,-18,-98,1,-4,1,-2
1,1496757422,2512,17,-24,-96,2,0,0,-2
1,1496757422,2512,18,-24,-104,1,0,-2,0
1,1496757422,2512,19,-17,-95,0,0,0,0
1,1496757422,2512,20,-15,-106,-2,0,0,0
1,1496757423,2513,1,-19,-94,3,0,0,0
1,1496757423,2513,2,-20,-97,1,0,-2,0
1,1496757423,2513,3,-19,-104,1,0,-2,0
1,1496757423,2513,4,-22,-92,5,0,0,0
1,1496757423,2513,5,-17,-94,3,-2,0,1
1,1496757423,2513,6,-21,-102,2,-2,0,0
1,1496757423,2513,7,-16,-102,1,0,-2,-2
1,1496757423,2513,8,-17,-94,4,-2,1,0
1,1496757423,2513,9,-16,-103,3,0,0,0
1,1496757423,2513,10,-16,-102,4,1,1,-2
1,1496757423,2513,11,-16,-95,6,1,0,0
1,1496757423,2513,12,-15,-101,5,0,1,-2
1,1496757423,2513,13,-16,-91,1,0,0,0
1,1496757423,2513,14,-15,-93,1,0,0,0
1,1496757423,2513,15,-10,-94,1,-4,-2,-2
1,1496757423,2513,16,-17,-106,3,-2,-4,0
1,1496757423,2513,17,-14,-97,8,-2,-2,0
1,1496757423,2513,18,-12,-101,9,-2,0,0
1,1496757423,2513,19,-13,-106,11,-2,-2,0
1,1496757423,2513,20,-14,-100,13,0,-4,0
1,1496757424,2514,1,-14,-104,15,0,-2,0
1,1496757424,2514,2,-12,-94,17,0,-4,0
1,1496757424,2514,3,-8,-104,11,-2,-4,0
1,1496757424,2514,4,-12,-93,18,-2,-6,0
1,1496757424,2514,5,-8,-99,22,0,-2,-2
1,1496757424,2514,6,-11,-101,20,0,-2,-4
1,1496757424,2514,7,-14,-104,20,0,-4,-2
1,1496757424,2514,8,-14,-93,22,-2,-4,0
1,1496757424,2514,9,-16,-94,17,0,-8,1
1,1496757424,2514,10,-15,-92,19,-4,-8,1
1,1496757424,2514,11,-15,-101,19,-4,-8,1
1,1496757424,2514,12,-16,-105,24,0,-2,0
1,1496757424,2514,13,-11,-82,23,0,-10,0
1,1496757424,2514,14,-18,-104,25,1,-18,13
1,1496757424,2514,15,-9,-92,32,0,-12,5
1,1496757424,2514,16,-10,-96,35,0,-12,0
1,1496757424,2514,17,-11,-95,35,-4,-12,0
1,1496757424,2514,18,-15,-89,37,-4,-14,0
1,1496757424,2514,19,-15,-89,43,-4,-12,0
1,1496757424,2514,20,-16,-102,41,-8,-16,1
1,1496757425,2514,1,-13,-96,40,-6,-14,1
1,1496757425,2514,2,-15,-108,39,-10,-16,1
1,1496757425,2514,3,-16,-102,42,-10,-14,0
1,1496757425,2514,4,-15,-89,39,-8,-10,1
1,1496757425,2514,5,-17,-99,44,-8,-12,0
1,1496757425,2514,6,-15,-95,41,-10,-12,0
1,1496757425,2514,7,-13,-91,39,-10,-10,0
1,1496757425,2514,8,-14,-103,35,-6,-12,0
1,1496757425,2514,9,-17,-94,36,-10,-12,-2
1,1496757425,2514,10,-20,-99,34,-14,-16,0
1,1496757425,2514,11,-13,-99,35,-10,-12,0
1,1496757425,2514,12,-16,-105,24,0,-2,0
1,1496757425,2514,13,-11,-82,23,0,-10,0
1,1496757425,2514,14,-18,-104,25,1,-18,13
1,1496757425,2514,15,-9,-92,32,0,-12,5
1,1496757425,2514,16,-10,-96,35,0,-12,0
1,1496757425,2514,17,-11,-95,35,-4,-12,0
1,1496757425,2514,18,-15,-89,37,-4,-14,0
1,1496757425,2514,19,-15,-89,43,-4,-12,0
1,1496757425,2514,20,-16,-102,41,-8,-16,1
1,1496757425,2515,1,-13,-96,40,-6,-14,1
1,1496757425,2515,2,-15,-108,39,-10,-16,1
1,1496757425,2515,3,-16,-102,42,-10,-14,0
1,1496757425,2515,4,-15,-89,39,-8,-10,1
1,1496757425,2515,5,-17,-99,44,-8,-12,0
1,1496757425,2515,6,-15,-95,41,-10,-12,0
1,1496757425,2515,7,-13,-91,39,-10,-10,0
1,1496757425,2515,8,-14,-103,35,-6,-12,0
1,1496757425,2515,9,-17,-94,36,-10,-12,-2
1,1496757425,2515,10,-20,-99,34,-14,-16,0
1,1496757425,2515,11,-13,-99,35,-10,-12,0
1,1496757425,2515,12,-14,-94,43,-6,-6,-6
1,1496757425,2515,13,-14,-102,41,-2,-6,-4
1,1496757425,2515,14,-15,-87,32,-2,-6,-2
1,1496757425,2515,15,-15,-107,30,-6,-19,-2
1,1496757425,2515,16,-15,-97,27,-8,-14,1
1,1496757425,2515,17,-17,-96,27,-10,-16,3
1,1496757425,2515,18,-8,-93,34,-8,-10,1
1,1496757425,2515,19,-11,-95,38,-4,-8,1
1,1496757425,2515,20,1,-94,48,-4,-12,-10
1,1496757426,2516,1,-10,-95,53,7,-14,-16
1,1496757426,2516,2,-13,-101,33,1,-40,-6
1,1496757426,2516,3,-24,-110,35,13,-27,5
1,1496757426,2516,4,-18,-110,50,9,-29,1
1,1496757426,2516,5,-26,-111,65,17,-16,15
1,1496757426,2516,6,-1,-89,43,7,20,26
1,1496757426,2516,7,-44,-91,68,26,-67,17
1,1496757426,2516,8,-1,-100,33,-16,11,5
1,1496757426,2516,9,-14,-91,32,-21,-12,-4
1,1496757426,2516,10,-12,-91,38,-8,-10,0
1,1496757426,2516,11,-23,-96,55,-10,-16,-2
1,1496757426,2516,12,-25,-92,61,1,-14,3
1,1496757426,2516,13,-8,-103,28,-21,-14,1
1,1496757426,2516,14,-11,-88,42,-23,-21,-4
1,1496757426,2516,15,-13,-91,51,-2,-14,3
1,1496757426,2516,16,-23,-89,61,-8,-16,-2
1,1496757426,2516,17,-19,-90,60,-4,-14,3
1,1496757426,2516,18,-19,-87,66,-6,-16,1
1,1496757426,2516,19,-12,-91,48,-2,-10,1
1,1496757426,2516,20,-25,-101,40,-10,-27,0
1,1496757427,2517,1,-35,-85,47,-6,-27,1
1,1496757427,2517,2,-33,-87,47,-18,-18,7
1,1496757427,2517,3,-25,-84,49,-8,-12,3
1,1496757427,2517,4,-28,-99,33,-29,-19,7
1,1496757427,2517,5,-23,-88,34,-16,-10,11
1,1496757427,2517,6,-62,124,-121,30,-167,-65
1,1496757427,2517,7,-42,-71,26,-31,-44,9
1,1496757427,2517,8,-39,-95,23,-33,-19,11
1,1496757427,2517,9,-24,-79,28,-27,17,13
1,1496757427,2517,10,-25,-93,25,-14,-12,3
1,1496757427,2517,11,6,-92,-1,-23,56,-63
1,1496757427,2517,12,87,-104,31,-6,39,17
1,1496757427,2517,13,-33,-92,62,-10,-18,3
1,1496757427,2517,14,-39,-88,26,-6,13,-4
1,1496757427,2517,15,-24,-95,36,-10,-50,-6
1,1496757427,2517,16,-23,-96,31,-4,-4,-12
1,1496757427,2517,17,-18,-101,28,-4,-6,-2
1,1496757427,2517,18,-21,-101,32,-6,-16,0
1,1496757427,2517,19,-23,-102,30,-10,-19,0
1,1496757427,2517,20,-15,-106,29,-8,-12,0
1,1496757428,2518,1,-11,-106,34,-8,-10,0
1,1496757428,2518,2,-16,-100,28,-6,-14,0
1,1496757428,2518,3,-22,-94,28,-10,-12,0
1,1496757428,2518,4,-21,-93,30,-10,-12,0
1,1496757428,2518,5,-20,-86,26,-6,-10,0
1,1496757428,2518,6,-16,-102,28,-8,-10,1
1,1496757428,2518,7,-9,-104,31,-2,-4,0
1,1496757428,2518,8,-11,-98,34,0,-2,-4
1,1496757428,2518,9,-20,-98,27,0,-14,-2
1,1496757428,2518,10,-22,-93,30,-2,-10,0
1,1496757428,2518,11,-20,-88,30,-6,-14,0
1,1496757428,2518,12,-15,-90,25,-6,-12,1
1,1496757428,2518,13,-14,-104,23,-6,-12,1
1,1496757428,2518,14,-14,-92,26,-6,-12,1
1,1496757428,2518,15,-13,-92,30,-6,-10,0
1,1496757428,2518,16,-21,-104,31,-4,-12,0
1,1496757428,2518,17,-22,-99,27,-4,-14,1
1,1496757428,2518,18,-16,-95,24,-8,-10,1
1,1496757428,2518,19,-31,-92,20,-4,-25,5
1,1496757428,2518,20,-11,-101,17,-19,-16,9
1,1496757429,2519,1,-7,-91,27,-12,7,9
1,1496757429,2519,2,-19,-97,32,-4,-8,-2
1,1496757429,2519,3,-23,-96,24,-2,-8,0
1,1496757429,2519,4,-22,-93,19,-2,-4,1
1,1496757429,2519,5,-23,-104,27,0,1,9
1,1496757429,2519,6,-14,-85,29,0,-2,11
1,1496757429,2519,7,51,-118,-23,-10,106,47
1,1496757429,2519,8,-7,-88,105,-31,-29,-52
1,1496757429,2519,9,-18,-85,52,22,115,20
1,1496757429,2519,10,-12,-85,39,7,-36,7
1,1496757429,2519,11,-35,-103,47,5,-2,-2
1,1496757429,2519,12,-15,-87,19,-10,-19,3
1,1496757429,2519,13,-18,-85,26,-10,-16,5
1,1496757429,2519,14,-37,-98,51,13,-10,7
1,1496757429,2519,15,-27,-87,37,-8,-8,0
1,1496757429,2519,16,-25,-85,30,-18,-6,-2
1,1496757429,2519,17,-47,-83,51,-14,-6,-6
1,1496757429,2519,18,-48,-86,52,1,-27,-4
1,1496757429,2519,19,-29,-72,28,-25,-14,0
1,1496757429,2519,20,-48,-90,41,-14,-27,-2
1,1496757430,2520,1,-54,-77,51,-8,-14,3
1,1496757430,2520,2,-43,-79,43,-16,-14,0
1,1496757430,2520,3,-57,-84,54,-6,-12,3
1,1496757430,2520,4,-53,-74,53,0,-2,0
1,1496757430,2520,5,-46,-82,40,-4,-4,1
1,1496757430,2520,6,-49,-75,38,-6,-4,1
1,1496757430,2520,7,-56,-88,39,-8,-10,0
1,1496757430,2520,8,-52,-93,42,-6,-8,0
1,1496757430,2520,9,-52,-77,44,-4,3,1
1,1496757430,2520,10,-51,-85,39,-4,-8,0
1,1496757430,2520,11,-54,-84,41,-2,-4,0
1,1496757430,2520,12,-49,-78,34,-8,0,1
1,1496757430,2520,13,-50,-79,33,-8,-4,3
1,1496757430,2520,14,-46,-81,33,-4,0,1
1,1496757430,2520,15,-52,-84,40,0,0,0
1,1496757430,2520,16,-51,-75,44,0,0,0
1,1496757430,2520,17,-46,-79,41,0,1,0
1,1496757430,2520,18,-49,-79,39,-4,0,-2
1,1496757430,2520,19,-47,-78,39,-4,0,0
1,1496757430,2520,20,-50,-81,39,-2,-2,0
1,1496757431,2521,1,-47,-80,39,-2,0,0
1,1496757431,2521,2,-53,-84,40,-4,-4,1
1,1496757431,2521,3,-45,-84,31,-10,0,1
1,1496757431,2521,4,-59,-84,39,-6,-6,0
1,1496757431,2521,5,-46,-79,32,-12,0,0
1,1496757431,2521,6,-48,-76,32,-4,-4,3
1,1496757431,2521,7,-53,-83,31,-8,-4,0
1,1496757431,2521,8,-52,-82,32,-6,-4,0
1,1496757431,2521,9,-55,-79,31,-10,-6,0
1,1496757431,2521,10,-54,-76,34,-8,-6,0
1,1496757431,2521,11,-56,-77,39,-4,-4,1
1,1496757431,2521,12,-52,-75,35,-4,-2,3
1,1496757431,2521,13,-52,-77,40,-2,0,0
1,1496757431,2521,14,-51,-80,41,-2,0,0
1,1496757431,2521,15,-50,-79,40,-4,0,0
1,1496757431,2521,16,-55,-76,39,0,-2,0
1,1496757431,2521,17,-59,-84,40,0,0,0
1,1496757431,2521,18,-58,-79,37,0,0,0
1,1496757431,2521,19,-58,-81,33,-4,-4,1
1,1496757431,2521,20,-64,-73,41,-2,-4,0
1,1496757432,2522,1,-59,-82,33,-2,-2,0
1,1496757432,2522,2,-56,-81,31,-4,-4,0
1,1496757432,2522,3,-44,-84,21,-10,0,0
1,1496757432,2522,4,-39,-87,21,-6,0,0
1,1496757432,2522,5,-46,-90,23,-8,0,0
1,1496757432,2522,6,-43,-87,26,-4,1,1
1,1496757432,2522,7,-43,-85,27,0,0,0
1,1496757432,2522,8,-37,-86,20,-4,0,-2
1,1496757432,2522,9,-38,-89,16,-4,0,0
1,1496757432,2522,10,-39,-85,18,-2,0,0
1,1496757432,2522,11,-43,-83,23,-4,0,-2
1,1496757432,2522,12,-42,-86,21,-2,0,0
1,1496757432,2522,13,-41,-91,15,-4,-2,1
1,1496757432,2522,14,-41,-90,17,-2,0,0
1,1496757432,2522,15,-43,-92,20,-2,-2,0
1,1496757432,2522,16,-39,-88,18,-2,0,0
1,1496757432,2522,17,-40,-89,18,-2,0,0
1,1496757432,2522,18,-42,-91,19,0,0,0
1,1496757432,2522,19,-42,-87,15,-2,0,0
1,1496757432,2522,20,-41,-87,15,-2,0,0
1,1496757433,2523,1,-40,-91,15,-4,0,0
1,1496757433,2523,2,-40,-94,14,-2,0,0
1,1496757433,2523,3,-41,-92,18,0,0,0
1,1496757433,2523,4,-42,-90,20,-2,0,0
1,1496757433,2523,5,-40,-84,20,-4,0,0
1,1496757433,2523,6,-45,-88,22,-2,-2,0
1,1496757433,2523,7,-50,-87,24,0,-2,0
1,1496757433,2523,8,-53,-83,27,0,0,0
1,1496757433,2523,9,-49,-86,20,-2,0,1
1,1496757433,2523,10,-51,-85,24,-2,0,1
1,1496757433,2523,11,-53,-85,24,-2,0,0
1,1496757433,2523,12,-53,-85,27,0,0,0
1,1496757433,2523,13,-51,-82,26,0,0,0
1,1496757433,2523,14,-50,-85,22,-2,0,0
1,1496757433,2523,15,-51,-85,23,-2,0,0
1,1496757433,2523,16,-52,-79,25,0,0,0
1,1496757433,2523,17,-50,-82,24,-2,0,0
1,1496757433,2523,18,-51,-87,25,0,0,0
1,1496757433,2523,19,-50,-86,26,0,0,0
1,1496757433,2523,20,-52,-86,26,0,0,0
1,1496757434,2524,1,-53,-84,24,0,0,0
1,1496757434,2524,2,-48,-86,20,-2,0,0
1,1496757434,2524,3,-49,-87,22,0,1,0
1,1496757434,2524,4,-46,-83,22,-2,0,-2
1,1496757434,2524,5,-48,-85,19,-2,0,0
1,1496757434,2524,6,-48,-83,22,-2,0,0
1,1496757434,2524,7,-51,-84,21,-2,0,0
1,1496757434,2524,8,-47,-89,21,0,0,0
1,1496757434,2524,9,-46,-85,23,0,0,0
1,1496757434,2524,10,-48,-82,23,-2,0,0
1,1496757434,2524,11,-47,-84,20,-2,0,0
1,1496757434,2524,12,-48,-85,21,-2,0,0
1,1496757434,2524,13,-50,-87,24,0,1,0
1,1496757434,2524,14,-50,-86,24,0,1,0
1,1496757434,2524,15,-49,-85,22,0,0,0
1,1496757434,2524,16,-47,-86,21,-2,0,0
1,1496757434,2524,17,-47,-80,21,-2,0,0
1,1496757434,2524,18,-49,-83,22,0,0,0
1,1496757434,2524,19,-49,-89,22,0,1,0
1,1496757434,2524,20,-48,-86,23,0,0,0
1,1496757435,2525,1,-38,-87,16,-2,1,-2
1,1496757435,2525,2,-38,-89,12,-4,0,0
1,1496757435,2525,3,-48,-84,21,-2,0,0
1,1496757435,2525,4,-49,-85,22,0,0,0
1,1496757435,2525,5,-48,-87,23,-2,0,0
1,1496757435,2525,6,-48,-85,22,0,1,0
1,1496757435,2525,7,-47,-83,22,-2,0,0
1,1496757435,2525,8,-47,-85,23,0,0,0
1,1496757435,2525,9,-44,-82,18,-2,0,0
1,1496757435,2525,10,-46,-89,18,-2,0,0
1,1496757435,2525,11,-48,-86,20,0,0,0
1,1496757435,2525,12,-45,-86,21,0,0,0
1,1496757435,2525,13,-46,-87,21,-2,0,0
1,1496757435,2525,14,-47,-85,21,0,0,0
1,1496757435,2525,15,-45,-83,19,-2,0,0
1,1496757435,2525,16,-45,-83,19,-2,0,0
1,1496757435,2525,17,-48,-87,22,0,0,0
1,1496757435,2525,18,-44,-87,18,0,0,0
1,1496757435,2525,19,-39,-93,13,0,1,-2
1,1496757435,2525,20,-38,-92,16,-2,0,-2
1,1496757436,2526,1,-38,-87,16,-2,1,-2
1,1496757436,2526,2,-38,-89,12,-4,0,0
1,1496757436,2526,3,-40,-87,15,-2,0,0
1,1496757436,2526,4,-40,-89,18,0,0,0
1,1496757436,2526,5,-37,-89,14,-2,1,0
1,1496757436,2526,6,-39,-90,14,0,0,0
1,1496757436,2526,7,-39,-90,13,-2,0,0
1,1496757436,2526,8,-39,-87,14,-2,0,0
1,1496757436,2526,9,-40,-86,14,0,0,0
1,1496757436,2526,10,-42,-89,16,0,0,0
1,1496757436,2526,11,-39,-90,15,-2,0,0
1,1496757436,2526,12,-38,-90,16,-2,0,0
1,1496757436,2526,13,-39,-87,14,-2,1,0
1,1496757436,2526,14,-39,-90,14,-2,0,0
1,1496757436,2526,15,-38,-90,13,-2,0,0
1,1496757436,2526,16,-40,-89,15,0,0,0
1,1496757436,2526,17,-41,-88,17,0,0,0
1,1496757436,2526,18,-39,-90,16,0,0,0
1,1496757436,2526,19,-41,-88,17,0,0,0
1,1496757436,2526,20,-41,-87,15,0,0,0
1,1496757437,2527,1,-40,-88,14,0,0,0
1,1496757437,2527,2,-39,-85,14,0,0,0
1,1496757437,2527,3,-41,-87,15,0,0,0
1,1496757437,2527,4,-38,-90,15,0,0,0
1,1496757437,2527,5,-39,-90,16,0,1,0
1,1496757437,2527,6,-41,-88,16,0,0,0
1,1496757437,2527,7,-37,-86,14,-2,0,0
1,1496757437,2527,8,-38,-87,14,-2,0,0
1,1496757437,2527,9,-42,-89,16,0,0,0
1,1496757437,2527,10,-42,-93,15,0,0,0
1,1496757437,2527,11,-40,-93,16,-2,1,0
1,1496757437,2527,12,-40,-88,16,0,0,0
1,1496757437,2527,13,-40,-91,16,0,0,0
1,1496757437,2527,14,-41,-91,17,0,1,0
1,1496757437,2527,15,-38,-89,14,-2,0,0
1,1496757437,2527,16,-38,-87,12,-2,0,0
1,1496757437,2527,17,-42,-91,16,0,0,0
1,1496757437,2527,18,-43,-91,16,0,0,0
1,1496757437,2527,19,-39,-90,15,0,1,0
1,1496757437,2527,20,-39,-90,16,0,0,0
1,1496757437,2528,1,-39,-89,17,0,0,0
1,1496757437,2528,2,-41,-88,16,0,0,0
1,1496757437,2528,3,-37,-86,14,-4,1,0
1,1496757437,2528,4,-38,-87,15,-2,1,0
1,1496757437,2528,5,-40,-88,15,-2,0,0
1,1496757437,2528,6,-39,-88,14,0,0,0
1,1496757437,2528,7,-43,-92,16,0,0,0
1,1496757437,2528,8,-38,-90,13,-2,1,-2
1,1496757437,2528,9,-39,-92,16,0,0,0
1,1496757437,2528,10,-37,-88,15,-2,1,0
1,1496757437,2528,11,-42,-92,16,0,0,0
1,1496757437,2528,12,-40,-88,16,0,0,0
1,1496757437,2528,13,-39,-89,16,-2,0,0
1,1496757437,2528,14,-41,-86,18,0,0,0
1,1496757437,2528,15,-39,-88,16,-2,1,0
1,1496757437,2528,16,-38,-89,13,-2,0,0
1,1496757437,2528,17,-37,-89,13,-2,0,0
1,1496757437,2528,18,-39,-89,14,0,0,0
1,1496757437,2528,19,-42,-91,15,0,0,0
1,1496757437,2528,20,-41,-91,15,0,0,0
1,1496757438,2529,1,-40,-90,16,0,1,0
1,1496757438,2529,2,-41,-90,15,0,0,0
1,1496757438,2529,3,-40,-90,15,0,0,0
1,1496757438,2529,4,-38,-89,17,-2,1,0
1,1496757438,2529,5,-39,-88,17,0,1,0
1,1496757438,2529,6,-39,-89,16,0,1,0
1,1496757438,2529,7,-38,-91,16,0,0,0
1,1496757438,2529,8,-38,-88,16,0,1,0
1,1496757438,2529,9,-40,-91,15,0,0,0
1,1496757438,2529,10,-39,-88,16,0,0,0
1,1496757438,2529,11,-39,-89,16,-2,0,0
1,1496757438,2529,12,-39,-89,15,-2,0,0
1,1496757438,2529,13,-39,-88,15,0,0,0
1,1496757438,2529,14,-39,-89,16,0,0,0
1,1496757438,2529,15,-40,-90,15,0,0,0
1,1496757438,2529,16,-39,-90,16,0,1,0
1,1496757438,2529,17,-40,-90,15,0,0,0
1,1496757438,2529,18,-40,-89,16,0,1,0
1,1496757438,2529,19,-39,-91,15,0,0,0
1,1496757438,2529,20,-39,-89,16,0,0,0
1,1496757439,2530,1,-39,-90,15,-2,1,0
1,1496757439,2530,2,-40,-91,15,0,1,0
1,1496757439,2530,3,-39,-88,16,0,0,0
1,1496757439,2530,4,-41,-91,15,0,0,0
1,1496757439,2530,5,-40,-90,15,0,0,0
1,1496757439,2530,6,-40,-90,15,-2,0,0
1,1496757439,2530,7,-40,-87,16,-2,0,0
1,1496757439,2530,8,-40,-89,15,-2,0,0
1,1496757439,2530,9,-38,-88,14,0,0,0
1,1496757439,2530,10,-39,-89,15,-2,0,0
1,1496757439,2530,11,-39,-87,15,0,1,0
1,1496757439,2530,12,-39,-89,15,-2,0,0
1,1496757439,2530,13,-39,-88,15,-2,0,0
1,1496757439,2530,14,-40,-91,17,0,0,0
1,1496757439,2530,15,-39,-90,16,0,0,0
1,1496757439,2530,16,-39,-90,16,0,0,0
1,1496757439,2530,17,-40,-90,16,0,1,0
1,1496757439,2530,18,-40,-93,15,0,1,0
1,1496757439,2530,19,-40,-88,15,0,0,0
1,1496757439,2530,20,-40,-87,16,-2,1,0
1,1496757440,2531,1,-41,-94,14,0,0,0
1,1496757440,2531,2,-39,-89,13,0,1,0
1,1496757440,2531,3,-39,-87,15,0,0,0
1,1496757440,2531,4,-40,-80,18,-4,0,0
1,1496757440,2531,5,-40,-87,18,-2,0,0
1,1496757440,2531,6,-37,-83,12,-2,1,0
1,1496757440,2531,7,-39,-97,15,0,1,0
1,1496757440,2531,8,-36,-86,15,-6,0,-2
1,1496757440,2531,9,-34,-90,11,-8,0,-6
1,1496757440,2531,10,-39,-91,13,0,1,0
1,1496757440,2531,11,-40,-89,16,1,1,0
1,1496757440,2531,12,-41,-86,26,-4,3,-6
1,1496757440,2531,13,-40,-88,18,0,1,0
1,1496757440,2531,14,-33,-85,10,-6,0,0
1,1496757440,2531,15,-36,-87,11,-6,0,0
1,1496757440,2531,16,-37,-84,14,-6,0,0
1,1496757440,2531,17,-40,-89,14,-4,0,0
1,1496757440,2531,18,-40,-84,17,-4,1,-2
1,1496757440,2531,19,-41,-86,18,0,1,0
1,1496757440,2531,20,-38,-90,15,-2,1,0
1,1496757441,2532,1,-43,-91,18,0,0,0
1,1496757441,2532,2,-46,-88,22,1,0,0
1,1496757441,2532,3,-40,-84,16,-4,1,-2
1,1496757441,2532,4,-40,-89,17,-2,0,0
1,1496757441,2532,5,-37,-89,15,0,0,-2
1,1496757441,2532,6,-41,-84,18,0,0,0
1,1496757441,2532,7,-42,-86,15,-4,-2,0
1,1496757441,2532,8,-38,-90,17,-2,1,-2
1,1496757441,2532,9,-43,-87,17,0,0,0
1,1496757441,2532,10,-42,-88,18,0,-2,0
1,1496757441,2532,11,-42,-89,19,3,0,0
1,1496757441,2532,12,-45,-85,21,3,0,0
1,1496757441,2532,13,-36,-91,15,0,5,-2
1,1496757441,2532,14,-43,-86,19,1,0,0
1,1496757441,2532,15,-53,-85,21,26,-8,-12
1,1496757441,2532,16,-22,-96,-15,0,-52,-33
1,1496757441,2532,17,-32,-79,6,-16,-8,-2
1,1496757441,2532,18,-43,-94,14,-4,0,0
1,1496757441,2532,19,-35,-83,15,-2,1,0
1,1496757441,2532,20,-36,-93,18,0,3,-2
1,1496757442,2533,1,-42,83,19,-27,-12,-48
1,1496757442,2533,2,-4,-80,-19,30,166,5
1,1496757442,2533,3,-35,-89,-7,-4,-139,-6
1,1496757442,2533,4,-23,-90,16,-2,39,-2
1,1496757442,2533,5,-41,-90,-1,0,-38,-6
1,1496757442,2533,6,-28,-90,14,0,0,0
1,1496757442,2533,7,-32,-96,11,0,3,-2
1,1496757442,2533,8,-36,-94,13,0,0,-2
1,1496757442,2533,9,-30,-90,8,-4,1,0
1,1496757442,2533,10,-33,-97,10,-2,0,0
1,1496757442,2533,11,-31,-86,12,-4,0,-2
1,1496757442,2533,12,-31,-98,9,0,1,0
1,1496757442,2533,13,-24,-97,13,-2,-2,0
1,1496757442,2533,14,-27,-80,15,-10,15,3
1,1496757442,2533,15,-29,-111,12,-8,-8,3
1,1496757442,2533,16,-21,-81,9,-6,26,3
1,1496757442,2533,17,-34,-103,10,-4,-16,0
1,1496757442,2533,18,-26,-87,9,-2,5,0
1,1496757442,2533,19,-30,-105,9,-2,-10,0
1,1496757442,2533,20,-26,-92,11,-2,-2,0
1,1496757443,2534,1,-25,-96,12,-2,-2,0
1,1496757443,2534,2,-23,-94,12,-2,0,0
1,1496757443,2534,3,-23,-93,13,-4,-2,0
1,1496757443,2534,4,-27,-97,12,-2,-2,0
1,1496757443,2534,5,-27,-95,11,-4,-6,0
1,1496757443,2534,6,-25,-91,10,-4,-4,0
1,1496757443,2534,7,-27,-99,12,-4,-6,0
1,1496757443,2534,8,-26,-93,13,-4,-6,0
1,1496757443,2534,9,-23,-95,14,-4,-4,0
1,1496757443,2534,10,-26,-98,14,-4,-4,0
1,1496757443,2534,11,-27,-101,12,-2,-6,0
1,1496757443,2534,12,-25,-93,12,-6,-6,0
1,1496757443,2534,13,-26,-95,16,-4,-8,0
1,1496757443,2534,14,-22,-94,15,-6,-6,1
1,1496757443,2534,15,-24,-94,16,-2,-6,0
1,1496757443,2534,16,-26,-97,13,-2,-8,0
1,1496757443,2534,17,-28,-97,9,-6,-12,0
1,1496757443,2534,18,-30,-96,13,-6,-12,1
1,1496757443,2534,19,-28,-94,15,-8,-10,1
1,1496757443,2534,20,-29,-97,18,-6,-10,3
1,1496757444,2535,1,-24,-96,17,-8,-12,1
1,1496757444,2535,2,-24,-95,19,-4,-6,-4
1,1496757444,2535,3,-28,-96,15,-4,-12,-2
1,1496757444,2535,4,-24,-95,13,-4,-10,-2
1,1496757444,2535,5,-24,-93,9,-10,-10,0
1,1496757444,2535,6,-25,-93,15,-12,-12,-4
1,1496757444,2535,7,-25,-96,15,-6,-10,1
1,1496757444,2535,8,-23,-98,13,-6,-10,0
1,1496757444,2535,9,-20,-98,13,-4,-6,0
1,1496757444,2535,10,-23,-96,11,-4,-10,0
1,1496757444,2535,11,-21,-92,12,-6,-10,0
1,1496757444,2535,12,-18,-97,13,-8,-10,0
1,1496757444,2535,13,-16,-96,14,-6,-8,0
1,1496757444,2535,14,-14,-96,13,-4,-10,0
1,1496757444,2535,15,-17,-98,15,-4,-14,0
1,1496757444,2535,16,-15,-99,11,-6,-8,0
1,1496757444,2535,17,-14,-101,13,-4,-10,0
1,1496757444,2535,18,-15,-102,11,-4,-8,0
1,1496757444,2535,19,-14,-102,11,-4,-8,0
1,1496757444,2535,20,-14,-100,13,-2,-12,0
1,1496757445,2535,1,-15,-102,12,-4,-12,0
1,1496757445,2535,2,-17,-105,11,-4,-12,0
1,1496757445,2535,3,-18,-106,7,-8,-14,0
1,1496757445,2535,4,-16,-98,3,-8,-8,0
1,1496757445,2535,5,-21,-91,8,-10,-6,3
1,1496757445,2535,6,-16,-96,5,-14,0,5
1,1496757445,2535,7,-23,-95,7,-10,-10,1
1,1496757445,2535,8,-21,-100,0,-2,-8,1
1,1496757445,2535,9,-26,-98,-1,-6,-16,0
1,1496757445,2535,10,-27,-97,-1,-6,-6,1
1,1496757445,2535,11,-35,-100,-7,0,-14,0
1,1496757445,2535,12,-31,-90,0,0,-6,0
1,1496757445,2535,13,-30,-95,4,-6,-2,0
1,1496757445,2535,14,-33,-98,0,-4,-2,0
1,1496757445,2535,15,-35,-112,-11,-4,0,0
1,1496757445,2535,16,-15,-99,11,-6,-8,0
1,1496757445,2535,17,-14,-101,13,-4,-10,0
1,1496757445,2535,18,-15,-102,11,-4,-8,0
1,1496757445,2535,19,-14,-102,11,-4,-8,0
1,1496757445,2535,20,-14,-100,13,-2,-12,0
1,1496757445,2536,1,-15,-102,12,-4,-12,0
1,1496757445,2536,2,-17,-105,11,-4,-12,0
1,1496757445,2536,3,-18,-106,7,-8,-14,0
1,1496757445,2536,4,-16,-98,3,-8,-8,0
1,1496757445,2536,5,-21,-91,8,-10,-6,3
1,1496757445,2536,6,-16,-96,5,-14,0,5
1,1496757445,2536,7,-23,-95,7,-10,-10,1
1,1496757445,2536,8,-21,-100,0,-2,-8,1
1,1496757445,2536,9,-26,-98,-1,-6,-16,0
1,1496757445,2536,10,-27,-97,-1,-6,-6,1
1,1496757445,2536,11,-35,-100,-7,0,-14,0
1,1496757445,2536,12,-31,-90,0,0,-6,0
1,1496757445,2536,13,-30,-95,4,-6,-2,0
1,1496757445,2536,14,-33,-98,0,-4,-2,0
1,1496757445,2536,15,-35,-112,-11,-4,0,0
1,1496757445,2536,16,-38,-91,-6,-4,0,1
1,1496757445,2536,17,-40,-89,-8,0,5,0
1,1496757445,2536,18,-41,-89,-2,0,5,0
1,1496757445,2536,19,-39,-83,-3,-2,9,0
1,1496757445,2536,20,-39,-82,-1,-2,7,0
1,1496757446,2537,1,-38,-100,-7,0,7,0
1,1496757446,2537,2,-38,-90,-6,1,7,0
1,1496757446,2537,3,-35,-94,-7,0,9,0
1,1496757446,2537,4,-32,-94,-8,1,7,0
1,1496757446,2537,5,-28,-90,-1,3,9,-2
1,1496757446,2537,6,-25,-95,2,1,11,-4
1,1496757446,2537,7,-23,-95,8,1,9,-4
1,1496757446,2537,8,-22,-98,10,3,7,-4
1,1496757446,2537,9,-23,-99,10,0,3,-2
1,1496757446,2537,10,-26,-100,10,1,3,-2
1,1496757446,2537,11,-25,-103,6,0,1,0
1,1496757446,2537,12,-29,-98,9,0,1,-2
1,1496757446,2537,13,-29,-95,7,-2,3,0
1,1496757446,2537,14,-26,-96,6,0,5,0
1,1496757446,2537,15,-28,-95,8,0,3,-2
1,1496757446,2537,16,-28,-98,3,-2,3,0
1,1496757446,2537,17,-27,-90,4,-2,3,0
1,1496757446,2537,18,-27,-90,8,-2,3,0
1,1496757446,2537,19,-26,-94,6,-4,3,-2
1,1496757446,2537,20,-27,-102,8,0,5,0
1,1496757447,2538,1,-31,-102,12,-2,0,-2
1,1496757447,2538,2,-17,-91,10,-4,17,0
1,1496757447,2538,3,-25,-92,13,-4,3,0
1,1496757447,2538,4,-24,-101,8,1,1,0
1,1496757447,2538,5,-24,-97,5,-4,1,1
1,1496757447,2538,6,-24,-99,12,-2,0,0
1,1496757447,2538,7,-23,-101,15,0,0,0
1,1496757447,2538,8,-17,-100,13,1,0,-4
1,1496757447,2538,9,-23,-93,13,0,-4,-6
1,1496757447,2538,10,-17,-102,3,-6,0,-2
1,1496757447,2538,11,-22,-95,13,0,-6,-2
1,1496757447,2538,12,-13,-106,2,-4,0,-2
1,1496757447,2538,13,-12,-97,10,5,1,-2
1,1496757447,2538,14,-12,-105,5,1,-8,-2
1,1496757447,2538,15,-19,-108,18,-4,-16,0
1,1496757447,2538,16,-14,-102,25,-4,-8,0
1,1496757447,2538,17,-9,-105,23,-6,-6,0
1,1496757447,2538,18,-7,-118,20,-8,-2,-4
1,1496757447,2538,19,-17,-106,31,0,-2,0
1,1496757447,2538,20,-16,-93,21,0,0,-4
1,1496757448,2539,1,-19,-102,20,0,-4,-4
1,1496757448,2539,2,-14,-95,22,-2,-4,0
1,1496757448,2539,3,-6,-97,22,-6,3,0
1,1496757448,2539,4,-4,-94,26,-2,-10,-2
1,1496757448,2539,5,-5,-105,29,-8,-12,0
1,1496757448,2539,6,-3,-96,30,-6,-8,0
1,1496757448,2539,7,-5,-98,26,-4,-12,1
1,1496757448,2539,8,-5,-109,30,-8,-6,0
1,1496757448,2539,9,-6,-102,31,-6,-12,1
1,1496757448,2539,10,-8,-96,30,-2,-8,0
1,1496757448,2539,11,-5,-104,25,-6,-12,0
1,1496757448,2539,12,-6,-96,27,-6,-10,0
1,1496757448,2539,13,-4,-97,27,-8,-10,0
1,1496757448,2539,14,-7,-100,30,-4,-14,1
1,1496757448,2539,15,-16,-101,38,0,-21,3
1,1496757448,2539,16,-29,-105,46,13,-38,18
1,1496757448,2539,17,-1,-86,53,1,-21,28
1,1496757448,2539,18,-30,-103,14,-8,36,37
1,1496757448,2539,19,-20,-82,48,-16,-97,17
1,1496757448,2539,20,-47,-94,31,-19,43,0
1,1496757449,2540,1,-14,-100,51,-23,-31,-8
1,1496757449,2540,2,-18,-104,2,-27,28,22
1,1496757449,2540,3,-17,-93,33,-18,-38,7
1,1496757449,2540,4,-33,-101,26,-18,-16,0
1,1496757449,2540,5,-22,-107,31,-12,-18,0
1,1496757449,2540,6,-19,-96,32,-10,-6,0
1,1496757449,2540,7,-16,-83,33,-8,-6,1
1,1496757449,2540,8,-16,-93,36,-2,-12,0
1,1496757449,2540,9,-18,-96,30,-6,-16,-6
1,1496757449,2540,10,-21,-104,30,-8,-27,1
1,1496757449,2540,11,-14,-100,24,-12,-14,5
1,1496757449,2540,12,-6,-97,24,-18,-8,5
1,1496757449,2540,13,-13,-97,35,-14,-12,-6
1,1496757449,2540,14,-14,-94,37,-2,-10,-12
1,1496757449,2540,15,-7,-94,28,-12,-8,-10
1,1496757449,2540,16,8,-105,24,-8,0,-10
1,1496757449,2540,17,4,-98,22,0,-2,-4
1,1496757449,2540,18,7,-96,21,-6,-8,-8
1,1496757449,2540,19,4,-108,13,-8,-18,-2
1,1496757449,2540,20,4,-110,21,-10,-14,0
1,1496757450,2541,1,3,-109,16,-16,-21,-2
1,1496757450,2541,2,1,-121,12,-18,-4,0
1,1496757450,2541,3,0,-105,9,-23,3,-2
1,1496757450,2541,4,-4,-93,15,-23,-8,-6
1,1496757450,2541,5,-2,-94,0,-23,0,-18
1,1496757450,2541,6,0,-92,3,-19,-14,-33
1,1496757450,2541,7,3,-118,-7,-10,-46,-29
1,1496757450,2541,8,-7,-114,-1,-10,-23,-12
1,1496757450,2541,9,7,-95,1,-14,-18,-4
1,1496757450,2541,10,15,-92,-1,-6,-14,-2
1,1496757450,2541,11,6,-110,-7,-6,-12,-4
1,1496757450,2541,12,16,-97,-5,0,-19,-4
1,1496757450,2541,13,9,-101,-15,-2,-8,0
1,1496757450,2541,14,7,-97,-19,0,-10,-2
1,1496757450,2541,15,12,-104,7,0,-12,-2
1,1496757450,2541,16,13,-103,-23,0,-4,0
1,1496757450,2541,17,9,-100,-3,-4,-4,-2
1,1496757450,2541,18,13,-99,-3,-2,-2,0
1,1496757450,2541,19,14,-99,-17,-4,-2,-2
1,1496757450,2541,20,12,-99,-21,-4,-2,-2
1,1496757451,2542,1,6,-105,16,-2,-2,-2
1,1496757451,2542,2,12,-102,-8,-2,-2,0
1,1496757451,2542,3,15,-107,-1,-2,-2,0
1,1496757451,2542,4,9,-103,8,0,0,0
1,1496757451,2542,5,9,-112,-9,0,0,0
1,1496757451,2542,6,15,-95,-12,0,0,0
1,1496757451,2542,7,8,-100,-17,0,0,0
1,1496757451,2542,8,7,-98,-16,0,0,0
1,1496757451,2542,9,8,-111,-19,-2,0,0
1,1496757451,2542,10,4,-104,-23,-2,1,0
1,1496757451,2542,11,-4,-100,-20,-2,0,1
1,1496757451,2542,12,5,-109,-18,-4,0,0
1,1496757451,2542,13,-3,-87,-6,0,0,0
1,1496757451,2542,14,7,-102,-11,0,1,0
1,1496757451,2542,15,7,-109,-6,0,1,0
1,1496757451,2542,16,23,-94,-1,0,5,0
1,1496757451,2542,17,-5,-92,-20,0,0,0
1,1496757451,2542,18,22,-98,-12,0,1,0
1,1496757451,2542,19,11,-108,-17,-2,1,-2
1,1496757451,2542,20,6,-99,-15,-2,0,0
1,1496757452,2543,1,11,-102,-11,-2,0,0
1,1496757452,2543,2,18,-106,-10,-2,1,0
1,1496757452,2543,3,20,-95,-28,0,1,0
1,1496757452,2543,4,13,-88,-44,0,1,0
1,1496757452,2543,5,11,-101,-28,1,1,1
1,1496757452,2543,6,12,-115,-27,0,1,0
1,1496757452,2543,7,8,-113,-26,1,0,3
1,1496757452,2543,8,-6,-102,25,-6,34,32
1,1496757452,2543,9,-5,-100,-1,39,-14,45
1,1496757452,2543,10,-3,-125,-15,34,-14,39
1,1496757452,2543,11,-51,-82,-6,51,-54,-10
1,1496757452,2543,12,-29,-92,-2,13,-19,-6
1,1496757452,2543,13,-33,-108,-3,-21,20,3
1,1496757452,2543,14,-40,-94,4,-4,0,-6
1,1496757452,2543,15,-33,-94,8,-2,0,0
1,1496757452,2543,16,-27,-100,1,-2,0,-2
1,1496757452,2543,17,-33,-106,7,-2,3,-2
1,1496757452,2543,18,-31,-102,9,-6,3,0
1,1496757452,2543,19,-25,-100,5,-2,0,-4
1,1496757452,2543,20,-30,-110,3,0,-2,-4
1,1496757452,2544,1,-33,-93,7,-2,0,0
1,1496757452,2544,2,-33,-90,2,1,-6,-4
1,1496757452,2544,3,-27,-81,5,-6,11,-2
1,1496757452,2544,4,-32,-90,2,1,-14,-10
1,1496757452,2544,5,-37,-102,-7,5,-12,-14
1,1496757452,2544,6,-37,-94,2,-12,20,0
1,1496757452,2544,7,-31,-99,-6,-2,7,0
1,1496757452,2544,8,-25,-99,-2,-6,1,0
1,1496757452,2544,9,-15,-76,-8,-10,20,-6
1,1496757452,2544,10,-16,-90,-15,5,-8,-8
1,1496757452,2544,11,-13,-101,-17,-6,24,1
1,1496757452,2544,12,-27,-103,-14,13,-10,-14
1,1496757452,2544,13,-18,-120,-12,17,-33,-21
1,1496757452,2544,14,-5,-127,-1,-33,49,5
1,1496757452,2544,15,-15,-101,-11,17,-21,-10
1,1496757452,2544,16,-14,-113,-17,1,3,-12
1,1496757452,2544,17,-21,-93,-14,-10,11,1
1,1496757452,2544,18,-21,-101,-22,-6,13,0
1,1496757452,2544,19,-2,-104,-14,-6,3,0
1,1496757452,2544,20,-7,-108,-8,0,1,-4
1,1496757453,2545,1,-8,-84,-26,-8,9,1
1,1496757453,2545,2,-7,-89,-7,1,1,0
1,1496757453,2545,3,-9,-98,-20,1,-6,0
1,1496757453,2545,4,-11,-105,-16,-2,3,0
1,1496757453,2545,5,-13,-99,-16,3,-2,-4
1,1496757453,2545,6,-12,-104,-20,0,0,-2
1,1496757453,2545,7,-12,-94,-16,-2,3,-2
1,1496757453,2545,8,-11,-98,-16,0,5,-2
1,1496757453,2545,9,-7,-100,-14,0,7,0
1,1496757453,2545,10,-10,-99,-7,0,5,0
1,1496757453,2545,11,-7,-99,-10,-2,7,0
1,1496757453,2545,12,-9,-99,-9,-2,5,0
1,1496757453,2545,13,-3,-97,-9,0,0,-2
1,1496757453,2545,14,-3,-98,-12,-6,3,1
1,1496757453,2545,15,-4,-91,-5,0,-2,-2
1,1496757453,2545,16,-3,-98,-7,-4,11,0
1,1496757453,2545,17,-7,-102,-7,5,-10,-6
1,1496757453,2545,18,-4,-103,0,-6,7,-2
1,1496757453,2545,19,-6,-92,0,5,-4,-4
1,1496757453,2545,20,-1,-118,0,-6,7,-2
1,1496757454,2546,1,-2,-119,1,7,-10,-8
1,1496757454,2546,2,0,-109,-5,-4,1,0
1,1496757454,2546,3,-4,-116,-5,-2,-6,0
1,1496757454,2546,4,3,-115,1,-2,3,-2
1,1496757454,2546,5,0,-107,2,-4,3,0
1,1496757454,2546,6,7,-104,0,-4,3,0
1,1496757454,2546,7,1,-95,-2,0,1,0
1,1496757454,2546,8,-2,-98,-6,-4,5,0
1,1496757454,2546,9,-8,-104,-11,-2,-2,0
1,1496757454,2546,10,-4,-97,-9,-2,1,0
1,1496757454,2546,11,-1,-108,-4,-4,-2,0
1,1496757454,2546,12,-1,-106,-3,0,0,-2
1,1496757454,2546,13,-4,-94,-5,-4,9,0
1,1496757454,2546,14,-16,-95,-16,0,0,0
1,1496757454,2546,15,-9,-109,-9,13,-21,-10
1,1496757454,2546,16,-4,-102,-5,3,-4,-2
1,1496757454,2546,17,-11,-109,-13,-2,-2,0
1,1496757454,2546,18,-7,-85,-4,0,1,-2
1,1496757454,2546,19,3,-97,-3,0,7,-4
1,1496757454,2546,20,-5,-109,-9,3,7,-4
1,1496757455,2546,1,1,-99,-3,-10,7,5
1,1496757455,2546,2,5,-94,-1,-6,17,1
1,1496757455,2546,3,-3,-124,-8,7,-10,-6
1,1496757455,2546,4,-2,-86,-1,-16,22,3
1,1496757455,2546,5,-17,-108,-3,1,-16,-2
1,1496757455,2546,6,4,-93,-8,3,-6,-2
1,1496757455,2546,7,-15,-106,-23,-12,26,0
1,1496757455,2546,8,-9,-103,-7,0,-18,1
1,1496757455,2546,9,-9,-106,-8,13,-14,-10
1,1496757455,2546,10,-9,-103,-16,-8,15,0
1,1496757455,2546,11,-12,-108,-16,0,3,0
1,1496757455,2546,12,-1,-106,-3,0,0,-2
1,1496757455,2546,13,-4,-94,-5,-4,9,0
1,1496757455,2546,14,-16,-95,-16,0,0,0
1,1496757455,2546,15,-9,-109,-9,13,-21,-10
1,1496757455,2546,16,-4,-102,-5,3,-4,-2
1,1496757455,2546,17,-11,-109,-13,-2,-2,0
1,1496757455,2546,18,-7,-85,-4,0,1,-2
1,1496757455,2546,19,3,-97,-3,0,7,-4
1,1496757455,2546,20,-5,-109,-9,3,7,-4
1,1496757455,2547,1,1,-99,-3,-10,7,5
1,1496757455,2547,2,5,-94,-1,-6,17,1
1,1496757455,2547,3,-3,-124,-8,7,-10,-6
1,1496757455,2547,4,-2,-86,-1,-16,22,3
1,1496757455,2547,5,-17,-108,-3,1,-16,-2
1,1496757455,2547,6,4,-93,-8,3,-6,-2
1,1496757455,2547,7,-15,-106,-23,-12,26,0
1,1496757455,2547,8,-9,-103,-7,0,-18,1
1,1496757455,2547,9,-9,-106,-8,13,-14,-10
1,1496757455,2547,10,-9,-103,-16,-8,15,0
1,1496757455,2547,11,-12,-108,-16,0,3,0
1,1496757455,2547,12,-9,-101,-10,-4,9,0
1,1496757455,2547,13,-9,-103,-7,1,-6,-2
1,1496757455,2547,14,-4,-86,-5,-4,9,0
1,1496757455,2547,15,-17,-100,-20,-10,7,0
1,1496757455,2547,16,-11,-110,-2,-4,7,0
1,1496757455,2547,17,-14,-96,-16,-2,1,0
1,1496757455,2547,18,-17,-100,-16,3,-8,-4
1,1496757455,2547,19,-21,-93,-15,-6,11,0
1,1496757455,2547,20,-12,-101,-13,1,-12,-2
1,1496757456,2548,1,-7,-97,-12,-10,11,1
1,1496757456,2548,2,-10,-106,-4,0,-2,-2
1,1496757456,2548,3,-16,-101,-17,0,9,0
1,1496757456,2548,4,-6,-114,2,-2,0,-4
1,1496757456,2548,5,3,-117,-12,13,-16,-10
1,1496757456,2548,6,-5,-98,-5,-4,13,-2
1,1496757456,2548,7,-3,-115,-11,5,-23,-4
1,1496757456,2548,8,-4,-102,-11,-6,13,1
1,1496757456,2548,9,-18,-95,-15,11,-31,-8
1,1496757456,2548,10,5,-125,-6,3,-2,-6
1,1496757456,2548,11,-4,-87,-6,-18,41,9
1,1496757456,2548,12,-6,120,11,34,-48,-23
1,1496757456,2548,13,9,-103,-11,-23,26,9
1,1496757456,2548,14,-3,-93,-3,3,-12,1
1,1496757456,2548,15,-1,-102,-26,5,-8,-6
1,1496757456,2548,16,-8,-102,-10,0,5,0
1,1496757456,2548,17,-15,-103,0,5,1,-2
1,1496757456,2548,18,6,-78,-3,0,9,1
1,1496757456,2548,19,-1,-92,-6,-16,9,7
1,1496757456,2548,20,-10,-113,-8,-8,-12,0
1,1496757457,2549,1,-11,-91,-12,7,5,-4
1,1496757457,2549,2,-19,-103,-17,5,-6,-4
1,1496757457,2549,3,-7,-92,-5,5,-8,-4
1,1496757457,2549,4,4,-94,0,-4,13,-2
1,1496757457,2549,5,7,-102,-6,-8,0,0
1,1496757457,2549,6,-7,-124,-11,0,0,-4
1,1496757457,2549,7,-3,-95,-14,-6,11,-4
1,1496757457,2549,8,6,-128,-15,-6,-2,-27
1,1496757457,2549,9,-5,-98,8,-12,0,-8
1,1496757457,2549,10,11,-114,-11,-6,3,-2
1,1496757457,2549,11,-20,-106,-22,-2,1,-2
1,1496757457,2549,12,8,-79,-8,-4,3,-4
1,1496757457,2549,13,26,-103,0,-4,-12,-10
1,1496757457,2549,14,5,-96,-8,-8,-10,-10
1,1496757457,2549,15,0,-105,-12,1,-12,-10
1,1496757457,2549,16,7,-99,-17,11,-42,-18
1,1496757457,2549,17,-1,-95,19,43,-88,-42
1,1496757457,2549,18,-10,-115,2,3,-19,-2
1,1496757457,2549,19,4,-115,-2,-2,-2,-4
1,1496757457,2549,20,-2,-96,1,-2,1,-4
1,1496757458,2550,1,24,-96,1,0,0,0
1,1496757458,2550,2,17,-96,0,-2,0,0
1,1496757458,2550,3,11,-94,-14,-2,0,0
1,1496757458,2550,4,13,-101,-10,-2,0,0
1,1496757458,2550,5,14,-99,-13,-2,0,0
1,1496757458,2550,6,11,-106,-10,-2,0,0
1,1496757458,2550,7,-1,-101,2,-2,0,0
1,1496757458,2550,8,10,-102,7,-2,1,0
1,1496757458,2550,9,16,-94,-10,-2,0,0
1,1496757458,2550,10,17,-99,5,-2,0,0
1,1496757458,2550,11,16,-108,-15,0,0,0
1,1496757458,2550,12,21,-105,-17,0,0,0
1,1496757458,2550,13,8,-103,-3,0,1,0
1,1496757458,2550,14,13,-108,-4,0,1,0
1,1496757458,2550,15,0,-108,-7,0,3,0
1,1496757458,2550,16,-7,-117,-2,0,-2,0
1,1496757458,2550,17,15,-122,5,0,0,0
1,1496757458,2550,18,18,-90,-14,-2,0,0
1,1496757458,2550,19,20,-101,-9,-2,0,0
1,1496757458,2550,20,21,-108,2,-2,0,0
1,1496757459,2551,1,8,-94,-5,-4,0,0
1,1496757459,2551,2,-4,-79,-12,-2,1,0
1,1496757459,2551,3,7,-98,-1,0,0,0
1,1496757459,2551,4,20,-103,-19,0,1,0
1,1496757459,2551,5,12,-85,0,0,0,0
1,1496757459,2551,6,8,-99,1,0,0,0
1,1496757459,2551,7,16,-110,-15,0,1,0
1,1496757459,2551,8,14,-102,0,0,3,3
1,1496757459,2551,9,3,-124,-14,1,0,1
1,1496757459,2551,10,25,-105,0,0,1,1
1,1496757459,2551,11,2,-95,-15,3,0,3
1,1496757459,2551,12,0,-100,-4,-2,5,1
1,1496757459,2551,13,15,-105,-5,0,3,1
1,1496757459,2551,14,-12,-91,-9,3,9,13
1,1496757459,2551,15,-19,106,1,-2,77,47
1,1496757459,2551,16,-19,115,-9,17,-4,41
1,1496757459,2551,17,34,118,-12,24,32,49
1,1496757459,2551,18,-16,-85,33,15,24,37
1,1496757459,2551,19,30,-81,79,75,43,22
1,1496757459,2551,20,-41,-106,24,-44,32,7
1,1496757460,2552,1,-11,-91,24,5,0,-10
1,1496757460,2552,2,-13,-84,19,-21,3,-12
1,1496757460,2552,3,12,-85,-7,-63,81,24
1,1496757460,2552,4,-19,-93,22,-27,41,5
1,1496757460,2552,5,-21,-84,3,-14,11,3
1,1496757460,2552,6,-5,-89,2,-12,15,0
1,1496757460,2552,7,-26,-87,22,-10,-2,-10
1,1496757460,2552,8,-29,-110,11,-10,-6,-6
1,1496757460,2552,9,-13,-95,21,0,-8,0
1,1496757460,2552,10,-15,-89,7,0,0,0
1,1496757460,2552,11,-13,-89,16,-6,0,-2
1,1496757460,2552,12,-11,-94,19,0,-6,-6
1,1496757460,2552,13,-23,-101,20,0,-12,-2
1,1496757460,2552,14,-3,-69,3,3,-6,-4
1,1496757460,2552,15,-6,-95,12,3,-14,-6
1,1496757460,2552,16,-9,-101,14,0,-4,-4
1,1496757460,2552,17,-15,-119,-2,1,-8,-2
1,1496757460,2552,18,-20,-104,10,0,-4,0
1,1496757460,2552,19,-10,-119,4,-2,-2,-2
1,1496757460,2552,20,-10,-104,3,-4,1,0
1,1496757461,2553,1,-8,-93,0,-6,9,0
1,1496757461,2553,2,-14,121,10,-4,5,-2
1,1496757461,2553,3,-7,-84,5,-4,7,0
1,1496757461,2553,4,-6,-77,6,-10,17,1
1,1496757461,2553,5,-9,-98,-5,0,-6,-2
1,1496757461,2553,6,-8,-105,7,3,-4,-2
1,1496757461,2553,7,-11,-99,8,-2,3,0
1,1496757461,2553,8,-15,-98,4,0,-2,0
1,1496757461,2553,9,-14,-102,6,0,0,0
1,1496757461,2553,10,-14,-93,13,0,0,0
1,1496757461,2553,11,-8,-110,11,-2,7,5
1,1496757461,2553,12,-2,-128,3,-2,7,7
1,1496757461,2553,13,-9,-100,10,0,-2,0
1,1496757461,2553,14,-19,-111,12,5,-16,0
1,1496757461,2553,15,-12,-108,4,1,-6,0
1,1496757461,2553,16,-16,-107,5,-4,11,1
1,1496757461,2553,17,-12,-102,11,-6,5,0
1,1496757461,2553,18,-11,-113,19,0,0,0
1,1496757461,2553,19,-12,-89,8,0,3,0
1,1496757461,2553,20,-9,-98,14,0,0,0
1,1496757462,2554,1,-6,-96,10,0,0,0
1,1496757462,2554,2,-13,-99,5,0,1,1
1,1496757462,2554,3,-14,-83,16,-2,0,0
1,1496757462,2554,4,-14,-102,11,0,-2,-2
1,1496757462,2554,5,-13,-101,9,1,-6,-2
1,1496757462,2554,6,-11,-94,10,0,-4,0
1,1496757462,2554,7,-13,-104,8,0,0,0
1,1496757462,2554,8,-9,-104,7,0,-2,0
1,1496757462,2554,9,-5,-101,10,0,3,0
1,1496757462,2554,10,-11,-99,10,-4,1,0
1,1496757462,2554,11,-8,-100,11,0,1,0
1,1496757462,2554,12,-10,-77,11,3,3,3
1,1496757462,2554,13,-8,-79,7,9,-6,1
1,1496757462,2554,14,-6,-95,12,0,-2,1
1,1496757462,2554,15,-10,-101,18,0,0,0
1,1496757462,2554,16,-9,-95,19,0,0,-4
1,1496757462,2554,17,-14,-107,12,-4,0,-2
1,1496757462,2554,18,-12,-100,21,-2,0,0
1,1496757462,2554,19,-14,-107,17,0,-4,-2
1,1496757462,2554,20,-12,-97,16,0,-8,-4
1,1496757463,2555,1,-6,-98,11,-10,7,1
1,1496757463,2555,2,-7,-84,18,-10,13,1
1,1496757463,2555,3,0,-83,17,-10,15,3
1,1496757463,2555,4,-7,-97,16,-2,3,1
1,1496757463,2555,5,-6,-116,12,1,-12,-4
1,1496757463,2555,6,2,-119,24,-6,5,0
1,1496757463,2555,7,-2,-91,10,-2,-2,-2
1,1496757463,2555,8,-9,-104,16,-2,-2,-2
1,1496757463,2555,9,-12,-93,20,-6,3,0
1,1496757463,2555,10,-6,-94,18,-8,1,0
1,1496757463,2555,11,0,-78,23,-6,7,0
1,1496757463,2555,12,-7,-95,20,-2,-2,-4
1,1496757463,2555,13,-4,-81,16,0,-4,-2
1,1496757463,2555,14,-6,-95,15,0,-6,-2
1,1496757463,2555,15,-8,-97,20,-2,0,-2
1,1496757463,2555,16,-3,-102,15,-8,5,0
1,1496757463,2555,17,-15,-98,9,1,0,-2
1,1496757463,2555,18,-19,-98,10,3,-8,-4
1,1496757463,2555,19,-1,-89,19,-6,9,0
1,1496757463,2555,20,0,-97,16,1,-10,-2
1,1496757464,2556,1,-10,-104,14,0,-6,-4
1,1496757464,2556,2,-10,-109,10,0,-6,-2
1,1496757464,2556,3,-6,-105,8,3,-10,-2
1,1496757464,2556,4,0,-96,20,-2,0,0
1,1496757464,2556,5,-1,-107,15,-2,-2,-2
1,1496757464,2556,6,0,-85,15,-6,7,1
1,1496757464,2556,7,-2,-101,15,-2,0,-2
1,1496757464,2556,8,-3,-96,16,0,0,0
1,1496757464,2556,9,-4,-108,18,0,-4,0
1,1496757464,2556,10,0,-101,13,1,-4,0
1,1496757464,2556,11,-1,-100,26,0,-2,-4
1,1496757464,2556,12,2,-90,22,-4,1,0
1,1496757464,2556,13,3,-109,17,-6,3,0
1,1496757464,2556,14,-9,-100,16,0,-2,0
1,1496757464,2556,15,-3,-105,14,-2,1,0
1,1496757464,2556,16,-12,-111,7,1,-8,-2
1,1496757464,2556,17,-4,-102,17,1,-6,-2
1,1496757464,2556,18,0,-124,20,0,-8,0
1,1496757464,2556,19,-5,-126,14,-2,5,1
1,1496757464,2556,20,0,-97,14,0,-4,-2
1,1496757465,2557,1,-6,-95,8,0,1,0
1,1496757465,2557,2,-6,-105,23,0,0,0
1,1496757465,2557,3,-2,-105,18,0,1,0
1,1496757465,2557,4,-5,-102,13,0,0,0
1,1496757465,2557,5,-2,-97,18,-2,0,0
1,1496757465,2557,6,3,-106,24,-6,3,0
1,1496757465,2557,7,3,-110,27,-4,0,0
1,1496757465,2557,8,0,-104,18,-4,0,0
1,1496757465,2557,9,-1,-119,14,-4,0,0
1,1496757465,2557,10,1,-105,19,-2,-2,0
1,1496757465,2557,11,4,-92,22,-2,-2,0
1,1496757465,2557,12,8,-96,26,-2,0,0
1,1496757465,2557,13,4,-93,18,-6,1,0
1,1496757465,2557,14,1,-100,26,0,-6,0
1,1496757465,2557,15,-1,-108,26,0,0,0
1,1496757465,2557,16,-5,-109,22,0,-2,1
1,1496757465,2557,17,3,-94,17,3,-12,0
1,1496757465,2557,18,0,-89,24,0,-4,0
1,1496757465,2557,19,1,-102,17,-6,3,0
1,1496757465,2557,20,6,-99,26,-4,0,0
1,1496757465,2557,1,-2,-104,21,-4,1,0
1,1496757465,2557,2,-7,-97,20,0,3,1
1,1496757465,2557,3,-2,-105,18,0,1,0
1,1496757465,2557,4,-5,-102,13,0,0,0
1,1496757465,2557,5,-2,-97,18,-2,0,0
1,1496757465,2557,6,3,-106,24,-6,3,0
1,1496757465,2557,7,3,-110,27,-4,0,0
1,1496757465,2557,8,0,-104,18,-4,0,0
1,1496757465,2557,9,-1,-119,14,-4,0,0
1,1496757465,2557,10,1,-105,19,-2,-2,0
1,1496757465,2557,11,4,-92,22,-2,-2,0
1,1496757465,2557,12,8,-96,26,-2,0,0
1,1496757465,2557,13,4,-93,18,-6,1,0
1,1496757465,2557,14,1,-100,26,0,-6,0
1,1496757465,2557,15,-1,-108,26,0,0,0
1,1496757465,2557,16,-5,-109,22,0,-2,1
1,1496757465,2557,17,3,-94,17,3,-12,0
1,1496757465,2557,18,0,-89,24,0,-4,0
1,1496757465,2557,19,1,-102,17,-6,3,0
1,1496757465,2557,20,6,-99,26,-4,0,0
1,1496757466,2558,1,-2,-104,21,-4,1,0
1,1496757466,2558,2,-7,-97,20,0,3,1
1,1496757466,2558,3,-12,-98,25,1,-6,-2
1,1496757466,2558,4,-4,-98,25,0,-2,0
1,1496757466,2558,5,4,-95,20,-4,3,0
1,1496757466,2558,6,1,-97,20,-4,1,0
1,1496757466,2558,7,1,-94,13,0,0,0
1,1496757466,2558,8,-3,-113,20,0,0,0
1,1496757466,2558,9,-7,-101,12,0,0,0
1,1496757466,2558,10,-7,-101,14,1,-6,0
1,1496757466,2558,11,-8,-100,21,3,-10,0
1,1496757466,2558,12,1,-101,14,-8,7,3
1,1496757466,2558,13,9,-93,6,-16,26,5
1,1496757466,2558,14,-1,-119,9,-2,3,-2
1,1496757466,2558,15,-8,-93,16,0,0,-2
1,1496757466,2558,16,-2,-94,22,0,0,0
1,1496757466,2558,17,-1,-93,17,0,-6,0
1,1496757466,2558,18,-4,-90,22,0,0,0
1,1496757466,2558,19,5,-88,21,-4,0,1
