ID,timeStamp,packetNumber,sampleNumber,accX,accY,accZ,gyrX,gyrY,gyrZ
1,1496756574,1606,1,-31,-89,-46,0,1,1
1,1496756574,1606,2,-31,-86,-30,0,3,1
1,1496756574,1606,3,-30,-89,-38,0,5,1
1,1496756574,1606,4,-36,-85,-38,0,5,1
1,1496756574,1606,5,-26,-95,-43,0,1,1
1,1496756574,1606,6,-28,-92,-28,0,3,0
1,1496756574,1606,7,-28,-80,-27,0,3,0
1,1496756574,1606,8,-34,-84,-38,0,3,0
1,1496756574,1606,9,-25,-93,-38,0,3,0
1,1496756574,1606,10,-30,-92,-29,0,1,1
1,1496756574,1606,11,-31,-80,-21,0,3,0
1,1496756574,1606,12,-31,-96,-29,0,1,0
1,1496756574,1606,13,-35,-90,-38,0,0,0
1,1496756574,1606,14,-38,-90,-24,0,1,5
1,1496756574,1606,15,-42,-86,-30,0,1,5
1,1496756574,1606,16,-46,-98,-30,0,0,9
1,1496756574,1606,17,-42,-84,-37,0,0,17
1,1496756574,1606,18,-8,-94,47,20,7,9
1,1496756574,1606,19,-50,-81,-21,3,-4,0
1,1496756574,1606,20,-27,-95,-27,-2,0,-2
1,1496756575,1607,1,-28,-87,-26,-2,1,0
1,1496756575,1607,2,-46,-84,-39,-2,1,0
1,1496756575,1607,3,-32,-79,-28,0,0,0
1,1496756575,1607,4,-27,-85,-23,0,0,0
1,1496756575,1607,5,-35,-85,-24,-2,1,0
1,1496756575,1607,6,-31,-98,-18,0,0,0
1,1496756575,1607,7,-52,-76,-24,0,1,0
1,1496756575,1607,8,-47,-81,-19,0,1,0
1,1496756575,1607,9,-37,-89,-30,-2,1,0
1,1496756575,1607,10,-36,-87,-31,0,0,0
1,1496756575,1607,11,-33,-84,-16,0,0,0
1,1496756575,1607,12,-43,-93,-15,-2,0,0
1,1496756575,1607,13,-43,-103,-20,-2,0,0
1,1496756575,1607,14,-44,-94,-17,-2,0,0
1,1496756575,1607,15,-40,-87,-12,-2,0,0
1,1496756575,1607,16,-38,-96,-20,-2,0,0
1,1496756575,1607,17,-38,-91,-21,-2,0,0
1,1496756575,1607,18,-48,-83,-29,-4,0,0
1,1496756575,1607,19,-47,-87,-21,-2,1,0
1,1496756575,1607,20,-39,-88,-25,-2,0,0
1,1496756576,1608,1,-38,-85,-16,-2,0,0
1,1496756576,1608,2,-44,-93,-18,-2,1,0
1,1496756576,1608,3,-31,-82,-7,-2,0,0
1,1496756576,1608,4,-39,-85,-28,-2,0,0
1,1496756576,1608,5,-48,-93,-54,-2,0,-2
1,1496756576,1608,6,-30,-74,-110,-50,60,-72
1,1496756576,1608,7,-54,-97,-17,1,-4,-4
1,1496756576,1608,8,-33,-94,-23,-4,1,-2
1,1496756576,1608,9,-35,-94,-22,-2,1,-2
1,1496756576,1608,10,-25,-91,-27,-2,1,-4
1,1496756576,1608,11,-33,-94,-25,0,1,-4
1,1496756576,1608,12,-29,-90,-29,0,3,0
1,1496756576,1608,13,-31,-90,-35,-2,0,-2
1,1496756576,1608,14,-41,-89,-33,-2,1,0
1,1496756576,1608,15,-18,-89,-27,0,0,0
1,1496756576,1608,16,-26,-87,-20,0,0,-2
1,1496756576,1608,17,-25,-91,-23,0,0,0
1,1496756576,1608,18,-22,-96,-25,0,0,0
1,1496756576,1608,19,-27,-88,-39,0,0,-4
1,1496756576,1608,20,-30,-88,-22,-2,1,-6
1,1496756577,1609,1,-25,-86,-29,0,1,-6
1,1496756577,1609,2,-21,-91,-28,-2,1,0
1,1496756577,1609,3,-29,-96,-33,-2,1,0
1,1496756577,1609,4,-24,-88,-27,-2,1,-2
1,1496756577,1609,5,-19,-92,-27,-2,0,0
1,1496756577,1609,6,-23,-81,-40,-2,0,0
1,1496756577,1609,7,-15,-97,-27,-2,0,0
1,1496756577,1609,8,-14,-93,-22,-2,0,0
1,1496756577,1609,9,-29,-91,-25,-2,3,0
1,1496756577,1609,10,-22,-92,-18,-2,1,0
1,1496756577,1609,11,-21,-94,-16,-2,0,0
1,1496756577,1609,12,-26,-91,-32,-4,1,0
1,1496756577,1609,13,-20,-93,-23,-4,3,0
1,1496756577,1609,14,-20,-94,-34,-4,1,0
1,1496756577,1609,15,-29,-101,-42,0,0,0
1,1496756577,1609,16,-26,-86,-25,-4,1,0
1,1496756577,1609,17,-17,-90,-22,-6,3,0
1,1496756577,1609,18,-20,-104,-31,0,0,-2
1,1496756577,1609,19,-17,-83,-20,-4,0,0
1,1496756577,1609,20,-25,-90,-30,0,1,0
1,1496756577,1609,1,-20,-96,-34,-2,3,0
1,1496756577,1609,2,-24,-93,-34,0,0,0
1,1496756577,1609,3,-22,-90,-32,0,1,0
1,1496756577,1609,4,-21,-88,-23,0,0,0
1,1496756577,1609,5,-19,-90,-28,-2,0,0
1,1496756577,1609,6,-29,-100,-38,-2,0,-2
1,1496756577,1609,7,-32,-101,-38,-2,0,-2
1,1496756577,1609,8,-14,-93,-22,-2,0,0
1,1496756577,1609,9,-29,-91,-25,-2,3,0
1,1496756577,1609,10,-22,-92,-18,-2,1,0
1,1496756577,1609,11,-21,-94,-16,-2,0,0
1,1496756577,1609,12,-26,-91,-32,-4,1,0
1,1496756577,1609,13,-20,-93,-23,-4,3,0
1,1496756577,1609,14,-20,-94,-34,-4,1,0
1,1496756577,1609,15,-29,-101,-42,0,0,0
1,1496756577,1609,16,-26,-86,-25,-4,1,0
1,1496756577,1609,17,-17,-90,-22,-6,3,0
1,1496756577,1609,18,-20,-104,-31,0,0,-2
1,1496756577,1609,19,-17,-83,-20,-4,0,0
1,1496756577,1609,20,-25,-90,-30,0,1,0
1,1496756578,1610,1,-20,-96,-34,-2,3,0
1,1496756578,1610,2,-24,-93,-34,0,0,0
1,1496756578,1610,3,-22,-90,-32,0,1,0
1,1496756578,1610,4,-21,-88,-23,0,0,0
1,1496756578,1610,5,-19,-90,-28,-2,0,0
1,1496756578,1610,6,-29,-100,-38,-2,0,-2
1,1496756578,1610,7,-32,-101,-38,-2,0,-2
1,1496756578,1610,8,-29,-82,-29,-2,1,0
1,1496756578,1610,9,-28,-84,-30,-2,0,0
1,1496756578,1610,10,-27,-85,-39,0,0,0
1,1496756578,1610,11,-14,-101,-26,0,0,0
1,1496756578,1610,12,-20,-92,-35,-2,1,0
1,1496756578,1610,13,-14,-90,-30,-2,1,-2
1,1496756578,1610,14,-29,-97,-41,-2,0,-2
1,1496756578,1610,15,-28,-95,-37,0,0,0
1,1496756578,1610,16,-22,-87,-19,0,0,-2
1,1496756578,1610,17,-24,-90,-27,1,0,-2
1,1496756578,1610,18,-18,-96,-21,3,0,-2
1,1496756578,1610,19,-17,-95,-33,-2,3,0
1,1496756578,1610,20,-30,-91,-33,0,-2,0
1,1496756579,1611,1,-19,-97,-25,0,0,-2
1,1496756579,1611,2,-18,-90,-35,-2,1,0
1,1496756579,1611,3,-15,-104,-32,0,1,0
1,1496756579,1611,4,-31,-100,-26,-4,0,0
1,1496756579,1611,5,-26,-93,-33,-2,1,0
1,1496756579,1611,6,-21,-89,-27,-4,1,0
1,1496756579,1611,7,-29,-89,-27,-2,0,0
1,1496756579,1611,8,-22,-90,-21,0,1,0
1,1496756579,1611,9,-25,-88,-32,-2,0,0
1,1496756579,1611,10,-7,-85,-18,-2,1,0
1,1496756579,1611,11,-25,-93,-44,-2,1,0
1,1496756579,1611,12,-23,-94,-21,-2,1,0
1,1496756579,1611,13,-27,-86,-30,0,0,0
1,1496756579,1611,14,-22,-82,-37,0,0,0
1,1496756579,1611,15,-22,-98,-38,0,0,-2
1,1496756579,1611,16,-22,-101,-31,0,0,0
1,1496756579,1611,17,-20,-93,-23,0,0,0
1,1496756579,1611,18,-17,-91,-30,0,1,0
1,1496756579,1611,19,-31,-96,-32,-2,1,0
1,1496756579,1611,20,-25,-95,-34,-4,5,0
1,1496756580,1612,1,-27,-85,-28,-2,1,0
1,1496756580,1612,2,-23,-94,-17,-2,1,0
1,1496756580,1612,3,-23,-86,-27,0,0,0
1,1496756580,1612,4,-22,-97,-38,0,0,0
1,1496756580,1612,5,-13,-95,-28,0,1,0
1,1496756580,1612,6,-20,-92,-33,0,1,0
1,1496756580,1612,7,-20,-94,-29,-2,0,0
1,1496756580,1612,8,-19,-89,-37,0,0,1
1,1496756580,1612,9,-22,-83,-35,-2,0,1
1,1496756580,1612,10,-17,-84,-37,0,0,0
1,1496756580,1612,11,-15,-96,-17,0,0,0
1,1496756580,1612,12,-20,-94,-24,0,0,0
1,1496756580,1612,13,-17,-86,-29,0,1,0
1,1496756580,1612,14,-24,-94,-33,-2,1,0
1,1496756580,1612,15,-15,-102,-36,0,0,-2
1,1496756580,1612,16,-25,-91,-15,-4,1,0
1,1496756580,1612,17,-21,-93,-26,-2,0,-2
1,1496756580,1612,18,-28,-100,-39,-4,0,-2
1,1496756580,1612,19,-21,-90,-15,-4,0,0
1,1496756580,1612,20,-15,-89,-32,-2,0,0
1,1496756581,1613,1,-23,-87,-24,-2,1,0
1,1496756581,1613,2,-21,-82,-36,0,0,0
1,1496756581,1613,3,-25,-98,-28,-2,1,0
1,1496756581,1613,4,-26,-99,-11,-4,7,0
1,1496756581,1613,5,-17,-86,-30,0,0,0
1,1496756581,1613,6,-22,-108,-41,-2,-2,0
1,1496756581,1613,7,-26,-111,-35,-2,0,0
1,1496756581,1613,8,-18,-84,-29,-2,0,0
1,1496756581,1613,9,-25,-88,-28,-2,1,0
1,1496756581,1613,10,-25,-102,-31,0,1,-2
1,1496756581,1613,11,-26,-93,-37,0,1,0
1,1496756581,1613,12,-25,-107,-31,1,1,-4
1,1496756581,1613,13,-25,-97,-32,0,1,-2
1,1496756581,1613,14,-32,-91,-32,0,0,-2
1,1496756581,1613,15,-21,-97,-19,0,0,0
1,1496756581,1613,16,-28,-100,-28,0,0,-2
1,1496756581,1613,17,-20,-96,-27,0,0,0
1,1496756581,1613,18,-25,-91,-32,0,0,0
1,1496756581,1613,19,-17,-86,-25,0,-2,0
1,1496756581,1613,20,-24,-97,-36,0,0,-2
1,1496756582,1614,1,-33,-90,-31,0,0,1
1,1496756582,1614,2,-24,-88,-34,0,0,3
1,1496756582,1614,3,-25,-82,-27,-6,3,1
1,1496756582,1614,4,-37,-64,-35,-2,1,5
1,1496756582,1614,5,-25,-80,-27,0,0,7
1,1496756582,1614,6,-26,-88,-35,-4,1,7
1,1496756582,1614,7,-38,-86,-35,0,0,7
1,1496756582,1614,8,-37,-97,-17,-2,1,0
1,1496756582,1614,9,-26,-89,-34,0,0,0
1,1496756582,1614,10,-25,-79,-29,-2,1,0
1,1496756582,1614,11,-33,-86,-32,0,0,-2
1,1496756582,1614,12,-34,-92,-30,0,0,-2
1,1496756582,1614,13,-32,-88,-32,-2,0,0
1,1496756582,1614,14,-34,-88,-28,-2,0,0
1,1496756582,1614,15,-31,-88,-26,-2,0,0
1,1496756582,1614,16,-33,-87,-34,-4,1,0
1,1496756582,1614,17,-30,-77,-28,-6,1,0
1,1496756582,1614,18,-33,-83,-29,-4,0,0
1,1496756582,1614,19,-29,-84,-30,-6,3,0
1,1496756582,1614,20,-27,-79,-22,-4,1,0
1,1496756583,1615,1,-30,-81,-26,0,0,0
1,1496756583,1615,2,-24,-73,-20,0,0,0
1,1496756583,1615,3,-30,-77,-29,-2,0,0
1,1496756583,1615,4,-29,-87,-29,0,0,0
1,1496756583,1615,5,-36,-92,-31,0,0,0
1,1496756583,1615,6,-29,-93,-32,0,0,-2
1,1496756583,1615,7,-31,-93,-30,0,0,-4
1,1496756583,1615,8,-39,-102,-35,1,0,-6
1,1496756583,1615,9,-39,-96,-33,-2,1,-4
1,1496756583,1615,10,-33,-87,-36,-2,0,-2
1,1496756583,1615,11,-37,-87,-30,0,0,0
1,1496756583,1615,12,-30,-87,-29,-4,1,1
1,1496756583,1615,13,-33,-92,-34,-2,1,0
1,1496756583,1615,14,-32,-86,-26,0,0,0
1,1496756583,1615,15,-30,-91,-37,-2,0,0
1,1496756583,1615,16,-29,-93,-35,-2,1,0
1,1496756583,1615,17,-33,-83,-29,-2,1,0
1,1496756583,1615,18,-31,-86,-28,0,0,0
1,1496756583,1615,19,-26,-78,-30,0,0,0
1,1496756583,1615,20,-30,-97,-33,-2,1,0
1,1496756583,1616,1,-31,-90,-23,0,0,0
1,1496756583,1616,2,-30,-87,-28,0,0,0
1,1496756583,1616,3,-25,-89,-25,-2,1,0
1,1496756583,1616,4,-28,-92,-30,-2,0,0
1,1496756583,1616,5,-27,-89,-30,-4,1,0
1,1496756583,1616,6,-27,-84,-29,-2,1,0
1,1496756583,1616,7,-27,-92,-31,0,0,0
1,1496756583,1616,8,-29,-86,-23,0,0,0
1,1496756583,1616,9,-30,-94,-34,0,0,0
1,1496756583,1616,10,-30,-91,-36,0,0,0
1,1496756583,1616,11,-37,-92,-30,0,0,0
1,1496756583,1616,12,-25,-94,-30,0,0,-2
1,1496756583,1616,13,-30,-86,-26,0,0,-2
1,1496756583,1616,14,-34,-86,-26,0,0,-2
1,1496756583,1616,15,-33,-88,-38,0,0,0
1,1496756583,1616,16,-37,-85,-27,-2,0,0
1,1496756583,1616,17,-31,-88,-29,-2,0,0
1,1496756583,1616,18,-30,-82,-32,0,0,0
1,1496756583,1616,19,-32,-93,-31,0,0,0
1,1496756583,1616,20,-31,-89,-25,-2,0,0
1,1496756584,1617,1,-31,-94,-28,0,0,0
1,1496756584,1617,2,-30,-90,-35,0,0,0
1,1496756584,1617,3,-35,-95,-37,-2,1,0
1,1496756584,1617,4,-34,-93,-34,0,1,0
1,1496756584,1617,5,-31,-89,-33,0,0,0
1,1496756584,1617,6,-32,-89,-33,0,0,0
1,1496756584,1617,7,-29,-93,-30,0,0,-2
1,1496756584,1617,8,-30,-87,-33,0,0,0
1,1496756584,1617,9,-31,-82,-37,0,1,0
1,1496756584,1617,10,-28,-88,-27,0,0,0
1,1496756584,1617,11,-25,-84,-30,0,0,0
1,1496756584,1617,12,-27,-88,-22,1,0,0
1,1496756584,1617,13,-28,-96,-34,1,0,0
1,1496756584,1617,14,-30,-87,-19,-2,0,0
1,1496756584,1617,15,-31,-93,-33,0,0,0
1,1496756584,1617,16,-30,-96,-29,0,1,0
1,1496756584,1617,17,-26,-92,-26,-2,1,0
1,1496756584,1617,18,-31,-94,-24,-2,3,0
1,1496756584,1617,19,-35,-95,-27,0,3,0
1,1496756584,1617,20,-34,-90,-33,-2,1,0
1,1496756585,1618,1,-35,-89,-35,-4,1,0
1,1496756585,1618,2,-28,-84,-32,0,0,0
1,1496756585,1618,3,-28,-87,-38,0,1,0
1,1496756585,1618,4,-25,-81,-28,-2,0,0
1,1496756585,1618,5,-23,-81,-27,0,0,0
1,1496756585,1618,6,-27,-88,-27,-2,1,0
1,1496756585,1618,7,-30,-88,-28,0,0,0
1,1496756585,1618,8,-29,-88,-32,-2,0,0
1,1496756585,1618,9,-32,-90,-29,0,0,0
1,1496756585,1618,10,-38,-94,-26,-2,0,0
1,1496756585,1618,11,-26,-94,-31,-4,0,0
1,1496756585,1618,12,-35,-106,-33,-4,1,0
1,1496756585,1618,13,-33,-89,-24,-2,0,0
1,1496756585,1618,14,-33,-92,-31,-2,1,0
1,1496756585,1618,15,-31,-97,-35,-4,1,0
1,1496756585,1618,16,-31,-80,-27,-4,1,1
1,1496756585,1618,17,-32,-81,-31,-2,1,0
1,1496756585,1618,18,-31,-91,-28,0,0,0
1,1496756585,1618,19,-28,-83,-28,0,0,0
1,1496756585,1618,20,-33,-87,-36,0,0,0
1,1496756586,1619,1,-35,-87,-37,0,0,0
1,1496756586,1619,2,-30,-81,-34,0,1,0
1,1496756586,1619,3,-33,-93,-25,0,0,-2
1,1496756586,1619,4,-31,-90,-26,0,0,0
1,1496756586,1619,5,-29,-85,-24,-2,0,0
1,1496756586,1619,6,-31,-91,-25,0,0,0
1,1496756586,1619,7,-32,-91,-22,0,0,0
1,1496756586,1619,8,-27,-85,-25,-2,1,0
1,1496756586,1619,9,-34,-92,-25,-2,0,0
1,1496756586,1619,10,-34,-89,-23,-2,0,0
1,1496756586,1619,11,-23,-77,-21,0,0,0
1,1496756586,1619,12,-31,-99,-25,0,0,0
1,1496756586,1619,13,-31,-88,-19,-2,1,0
1,1496756586,1619,14,-26,-76,-19,-2,0,1
1,1496756586,1619,15,-28,-96,-27,0,0,-2
1,1496756586,1619,16,-39,-93,-27,-2,1,0
1,1496756586,1619,17,-34,-95,-28,0,0,0
1,1496756586,1619,18,-31,-99,-32,0,0,-2
1,1496756586,1619,19,-32,-88,-26,-2,0,0
1,1496756586,1619,20,-36,-96,-22,-2,1,0
1,1496756587,1619,1,-32,-86,-15,-6,3,1
1,1496756587,1619,2,-34,-91,-28,0,1,3
1,1496756587,1619,3,-41,-84,-27,-2,1,7
1,1496756587,1619,4,-40,-96,-33,0,0,9
1,1496756587,1619,5,-25,-84,-29,-2,0,11
1,1496756587,1619,6,-40,-80,-29,0,0,5
1,1496756587,1619,7,-43,-83,-21,-2,0,3
1,1496756587,1619,8,-31,-79,-28,0,0,1
1,1496756587,1619,9,-29,-81,-32,0,1,0
1,1496756587,1619,10,-31,-82,-23,0,0,0
1,1496756587,1619,11,-53,-87,-33,-2,1,0
1,1496756587,1619,12,-41,-81,-26,0,0,0
1,1496756587,1619,13,-35,-89,-27,0,0,0
1,1496756587,1619,14,-43,-89,-26,0,1,-2
1,1496756587,1619,15,-40,-81,-19,0,0,0
1,1496756587,1619,16,-35,-87,-24,0,0,0
1,1496756587,1619,17,-52,-92,-25,0,3,-8
1,1496756587,1619,18,-41,-97,-37,1,0,-4
1,1496756587,1619,19,-32,-88,-26,-2,0,0
1,1496756587,1619,20,-36,-96,-22,-2,1,0
1,1496756587,1620,1,-32,-86,-15,-6,3,1
1,1496756587,1620,2,-34,-91,-28,0,1,3
1,1496756587,1620,3,-41,-84,-27,-2,1,7
1,1496756587,1620,4,-40,-96,-33,0,0,9
1,1496756587,1620,5,-25,-84,-29,-2,0,11
1,1496756587,1620,6,-40,-80,-29,0,0,5
1,1496756587,1620,7,-43,-83,-21,-2,0,3
1,1496756587,1620,8,-31,-79,-28,0,0,1
1,1496756587,1620,9,-29,-81,-32,0,1,0
1,1496756587,1620,10,-31,-82,-23,0,0,0
1,1496756587,1620,11,-53,-87,-33,-2,1,0
1,1496756587,1620,12,-41,-81,-26,0,0,0
1,1496756587,1620,13,-35,-89,-27,0,0,0
1,1496756587,1620,14,-43,-89,-26,0,1,-2
1,1496756587,1620,15,-40,-81,-19,0,0,0
1,1496756587,1620,16,-35,-87,-24,0,0,0
1,1496756587,1620,17,-52,-92,-25,0,3,-8
1,1496756587,1620,18,-41,-97,-37,1,0,-4
1,1496756587,1620,19,-42,-96,-30,0,0,-2
1,1496756587,1620,20,-38,-84,-32,0,1,-2
1,1496756588,1621,1,-48,-87,-27,0,0,-4
1,1496756588,1621,2,-37,-89,-20,0,0,0
1,1496756588,1621,3,-41,-83,-19,-2,1,0
1,1496756588,1621,4,-31,-89,-23,0,0,0
1,1496756588,1621,5,-32,-94,-27,0,0,-2
1,1496756588,1621,6,-34,-77,-15,-2,1,0
1,1496756588,1621,7,-37,-79,-26,-2,0,0
1,1496756588,1621,8,-44,-95,-33,-4,1,-2
1,1496756588,1621,9,-43,-93,-20,1,0,0
1,1496756588,1621,10,-36,-75,-25,0,0,0
1,1496756588,1621,11,-33,-82,-30,-2,1,-2
1,1496756588,1621,12,-31,-81,-11,0,0,0
1,1496756588,1621,13,-44,-76,-22,0,0,0
1,1496756588,1621,14,-39,-93,-32,-2,1,0
1,1496756588,1621,15,-33,-89,-16,-2,1,0
1,1496756588,1621,16,-48,-81,-17,-2,1,0
1,1496756588,1621,17,-35,-92,-30,0,1,0
1,1496756588,1621,18,-38,-80,-26,0,0,0
1,1496756588,1621,19,-35,-85,-26,0,0,1
1,1496756588,1621,20,-33,-80,-23,0,0,0
1,1496756589,1622,1,-36,-82,-32,-4,3,0
1,1496756589,1622,2,-40,-86,-30,-4,0,1
1,1496756589,1622,3,-42,-85,-19,0,1,-2
1,1496756589,1622,4,-37,-96,-24,-4,1,-2
1,1496756589,1622,5,-43,-84,-33,-2,1,0
1,1496756589,1622,6,-36,-92,-24,-2,1,-2
1,1496756589,1622,7,-35,-95,-16,0,0,0
1,1496756589,1622,8,-40,-86,-26,0,-2,0
1,1496756589,1622,9,-37,-79,-26,-2,0,0
1,1496756589,1622,10,-44,-80,-31,-2,1,0
1,1496756589,1622,11,-31,-85,-19,0,0,0
1,1496756589,1622,12,-32,-77,-26,0,0,0
1,1496756589,1622,13,-40,-92,-37,-2,0,0
1,1496756589,1622,14,-46,-94,-30,0,0,0
1,1496756589,1622,15,-30,-88,-27,0,0,-2
1,1496756589,1622,16,-41,-92,-20,-2,0,-2
1,1496756589,1622,17,-41,-85,-20,-2,0,0
1,1496756589,1622,18,-44,-84,-21,-2,1,0
1,1496756589,1622,19,-41,-78,-26,-2,0,0
1,1496756589,1622,20,-39,-81,-26,-2,1,0
1,1496756590,1623,1,-39,-84,-33,-2,1,0
1,1496756590,1623,2,-26,-74,-27,-4,1,1
1,1496756590,1623,3,-41,-91,-28,-2,1,-2
1,1496756590,1623,4,-36,-97,-31,-2,1,-2
1,1496756590,1623,5,-33,-85,-30,-2,1,0
1,1496756590,1623,6,-42,-96,-24,0,1,-2
1,1496756590,1623,7,-37,-94,-43,0,0,-4
1,1496756590,1623,8,-48,-80,-25,-2,3,0
1,1496756590,1623,9,-37,-86,-35,-2,1,0
1,1496756590,1623,10,-35,-86,-28,-2,3,-2
1,1496756590,1623,11,-42,-97,-34,0,0,0
1,1496756590,1623,12,-34,-86,-22,-2,1,0
1,1496756590,1623,13,-34,-87,-24,0,1,0
1,1496756590,1623,14,-39,-91,-25,0,0,0
1,1496756590,1623,15,-42,-87,-25,-2,0,0
1,1496756590,1623,16,-40,-85,-29,-2,0,0
1,1496756590,1623,17,-40,-83,-29,-2,3,0
1,1496756590,1623,18,-31,-80,-25,-2,1,0
1,1496756590,1623,19,-34,-80,-22,-4,3,0
1,1496756590,1623,20,-32,-82,-30,0,0,0
1,1496756591,1624,1,-47,-90,-38,0,0,-4
1,1496756591,1624,2,-39,-86,-26,0,0,0
1,1496756591,1624,3,-36,-91,-28,0,1,-2
1,1496756591,1624,4,-37,-91,-26,0,1,-2
1,1496756591,1624,5,-47,-97,-29,0,0,-2
1,1496756591,1624,6,-43,-102,-24,0,0,0
1,1496756591,1624,7,-39,-85,-26,-2,0,0
1,1496756591,1624,8,-38,-88,-13,-2,0,-2
1,1496756591,1624,9,-36,-92,-26,0,0,-2
1,1496756591,1624,10,-40,-87,-25,-4,3,0
1,1496756591,1624,11,-32,-93,-28,0,0,0
1,1496756591,1624,12,-35,-88,-25,-2,0,0
1,1496756591,1624,13,-37,-77,-10,-2,0,0
1,1496756591,1624,14,-36,-84,-23,0,1,0
1,1496756591,1624,15,-41,-85,-41,-2,0,0
1,1496756591,1624,16,-42,-91,-25,-2,1,0
1,1496756591,1624,17,-37,-91,-26,-2,1,0
1,1496756591,1624,18,-40,-85,-24,-2,1,0
1,1496756591,1624,19,-39,-87,-26,-2,1,0
1,1496756591,1624,20,-32,-83,-21,-4,1,0
1,1496756592,1625,1,-32,-82,-26,-2,0,0
1,1496756592,1625,2,-33,-82,-25,0,0,0
1,1496756592,1625,3,-33,-90,-24,0,0,0
1,1496756592,1625,4,-42,-81,-30,0,0,0
1,1496756592,1625,5,-28,-89,-27,0,0,-2
1,1496756592,1625,6,-41,-88,-30,-2,1,0
1,1496756592,1625,7,-41,-91,-27,0,1,0
1,1496756592,1625,8,-43,-90,-24,0,0,0
1,1496756592,1625,9,-42,-93,-28,-2,0,0
1,1496756592,1625,10,-38,-97,-21,0,0,0
1,1496756592,1625,11,-40,-102,-35,0,1,-2
1,1496756592,1625,12,-38,-99,-38,-2,0,-2
1,1496756592,1625,13,-38,-89,-31,-4,0,0
1,1496756592,1625,14,-41,-90,-25,-6,3,-2
1,1496756592,1625,15,-36,-82,-20,-2,3,0
1,1496756592,1625,16,-37,-87,-26,-4,3,0
1,1496756592,1625,17,-36,-78,-35,-4,1,0
1,1496756592,1625,18,-37,-69,-22,-2,1,1
1,1496756592,1625,19,-21,-70,-25,0,0,1
1,1496756592,1625,20,-32,-85,-24,0,0,0
1,1496756593,1626,1,-36,-87,-12,0,0,3
1,1496756593,1626,2,-28,-91,-26,0,0,0
1,1496756593,1626,3,-44,-101,-33,0,0,-4
1,1496756593,1626,4,-43,-114,-26,-2,0,-4
1,1496756593,1626,5,-42,-104,-30,-4,3,-2
1,1496756593,1626,6,-37,-101,-39,-4,0,-6
1,1496756593,1626,7,-43,-101,-21,-4,1,-6
1,1496756593,1626,8,-32,-81,-23,-2,0,0
1,1496756593,1626,9,-29,-89,-23,0,0,0
1,1496756593,1626,10,-39,-83,-25,-2,1,0
1,1496756593,1626,11,-27,-91,-21,0,0,0
1,1496756593,1626,12,-37,-87,-24,0,-2,0
1,1496756593,1626,13,-33,-91,-22,0,0,0
1,1496756593,1626,14,-31,-92,-19,0,-2,0
1,1496756593,1626,15,-33,-82,-12,0,0,0
1,1496756593,1626,16,-31,-86,-26,-2,0,0
1,1496756593,1626,17,-35,-80,-26,-2,0,1
1,1496756593,1626,18,-38,-71,-27,0,0,0
1,1496756593,1626,19,-34,-95,-21,0,0,0
1,1496756593,1626,20,-35,-86,-25,0,0,0
1,1496756594,1627,1,-36,-101,-29,0,0,0
1,1496756594,1627,2,-30,-99,-26,0,0,-2
1,1496756594,1627,3,-42,-102,-25,-2,0,-4
1,1496756594,1627,4,-48,-96,-21,-2,0,-4
1,1496756594,1627,5,-41,-109,-25,-2,0,-2
1,1496756594,1627,6,-37,-88,-17,-4,0,-2
1,1496756594,1627,7,-35,-89,-9,-2,0,-2
1,1496756594,1627,8,-32,-88,-17,-4,0,0
1,1496756594,1627,9,-37,-77,-21,-4,0,0
1,1496756594,1627,10,-32,-86,-25,-2,0,0
1,1496756594,1627,11,-34,-86,-22,-2,0,0
1,1496756594,1627,12,-29,-94,-17,-2,0,-2
1,1496756594,1627,13,-37,-92,-19,-2,0,-2
1,1496756594,1627,14,-34,-89,-19,-4,1,-2
1,1496756594,1627,15,-39,-93,-21,-4,1,0
1,1496756594,1627,16,-38,-93,-19,-4,0,0
1,1496756594,1627,17,-40,-99,-18,-4,0,-4
1,1496756594,1627,18,-37,-97,-16,-2,0,0
1,1496756594,1627,19,-37,-87,-27,-2,0,0
1,1496756594,1627,20,-33,-100,-19,0,0,-2
1,1496756595,1628,1,-29,-90,-23,0,0,0
1,1496756595,1628,2,-41,-82,-25,-2,1,-2
1,1496756595,1628,3,-38,-95,-23,0,0,-4
1,1496756595,1628,4,-36,-87,-28,-4,0,0
1,1496756595,1628,5,-38,-92,-19,-2,-2,0
1,1496756595,1628,6,-40,-95,-21,-2,0,-2
1,1496756595,1628,7,-37,-94,-23,-2,0,0
1,1496756595,1628,8,-33,-74,-12,-6,0,0
1,1496756595,1628,9,-33,-100,-17,-2,0,-4
1,1496756595,1628,10,-34,-89,-23,-2,0,0
1,1496756595,1628,11,-29,-102,-15,-2,0,-4
1,1496756595,1628,12,-34,-101,-22,-4,0,-4
1,1496756595,1628,13,-39,-89,-19,-4,0,-2
1,1496756595,1628,14,-42,-90,-21,-2,0,-2
1,1496756595,1628,15,-31,-90,-17,-4,0,-2
1,1496756595,1628,16,-35,-73,-14,-4,0,0
1,1496756595,1628,17,-36,-86,-17,-2,0,0
1,1496756595,1628,18,-31,-90,-21,-2,0,0
1,1496756595,1628,19,-27,-77,-13,-2,-2,0
1,1496756595,1628,20,-31,-94,-24,-2,0,0
1,1496756596,1629,1,-34,-93,-22,-2,0,-2
1,1496756596,1629,2,-32,-91,-10,-4,0,0
1,1496756596,1629,3,-32,-99,-17,-2,0,-2
1,1496756596,1629,4,-41,-92,-21,-4,0,-2
1,1496756596,1629,5,-41,-108,-10,-4,0,-2
1,1496756596,1629,6,-43,-105,-21,-4,0,-2
1,1496756596,1629,7,-39,-104,-18,-4,0,-2
1,1496756596,1629,8,-38,-98,-15,-2,0,-2
1,1496756596,1629,9,-32,-92,-16,-4,0,-2
1,1496756596,1629,10,-32,-90,-18,-4,0,0
1,1496756596,1629,11,-33,-92,-16,-4,0,0
1,1496756596,1629,12,-34,-89,-17,-2,-4,0
1,1496756596,1629,13,-26,-83,-3,-2,-2,0
1,1496756596,1629,14,-34,-87,-9,-2,-2,-2
1,1496756596,1629,15,-34,-96,-14,-2,0,-2
1,1496756596,1629,16,-31,-94,-17,-4,0,0
1,1496756596,1629,17,-36,-94,-15,-2,0,-2
1,1496756596,1629,18,-38,-100,-8,-2,-2,-2
1,1496756596,1629,19,-33,-100,-22,-4,-4,-2
1,1496756596,1629,20,-19,-92,-15,0,-2,-2
1,1496756597,1630,1,-24,-96,-9,-4,0,0
1,1496756597,1630,2,-39,-101,-6,-4,-2,0
1,1496756597,1630,3,-31,-93,-12,-2,-2,-2
1,1496756597,1630,4,-34,-87,-18,-2,0,-2
1,1496756597,1630,5,-33,-96,-11,-4,-2,-2
1,1496756597,1630,6,-29,-92,-13,-4,-2,0
1,1496756597,1630,7,-28,-89,-11,-2,-4,0
1,1496756597,1630,8,-30,-95,-9,-2,-4,-2
1,1496756597,1630,9,-35,-96,-10,-2,-4,-2
1,1496756597,1630,10,-42,-99,-5,-4,-4,-2
1,1496756597,1630,11,-27,-102,-17,0,-2,-2
1,1496756597,1630,12,-25,-93,-12,-2,-4,0
1,1496756597,1630,13,-29,-103,-8,0,-4,-2
1,1496756597,1630,14,-25,-96,0,-2,-2,0
1,1496756597,1630,15,-41,-99,-4,-4,-2,-2
1,1496756597,1630,16,-37,-104,-6,-2,-2,-4
1,1496756597,1630,17,-30,-81,-6,-2,-4,-2
1,1496756597,1630,18,-26,-117,-10,0,-6,-4
1,1496756597,1630,19,-25,-98,-5,0,-2,0
1,1496756597,1630,20,-26,-91,-11,-4,0,0
1,1496756597,1630,1,-34,-106,-11,-2,-2,-4
1,1496756597,1630,2,-40,-102,-7,-2,-2,-2
1,1496756597,1630,3,-31,-90,-9,-4,-2,-2
1,1496756597,1630,4,-21,-93,1,-2,-4,-2
1,1496756597,1630,5,-37,-90,-6,-4,-4,0
1,1496756597,1630,6,-31,-83,-4,-4,-4,0
1,1496756597,1630,7,-25,-87,-10,-4,-4,0
1,1496756597,1630,8,-25,-90,-12,-4,-2,0
1,1496756597,1630,9,-40,-108,-23,-2,-2,0
1,1496756597,1630,10,-38,-117,-22,-4,-2,-2
1,1496756597,1630,11,-38,-120,-15,-6,0,-6
1,1496756597,1630,12,-49,-127,-16,-8,1,-10
1,1496756597,1630,13,-43,-114,-25,-8,0,-10
1,1496756597,1630,14,-34,-111,-16,-2,0,-8
1,1496756597,1630,15,-32,-91,-16,-2,-2,-6
1,1496756597,1630,16,-27,-84,-7,-2,-2,-2
1,1496756597,1630,17,-30,-81,-6,-2,-4,-2
1,1496756597,1630,18,-26,-117,-10,0,-6,-4
1,1496756597,1630,19,-25,-98,-5,0,-2,0
1,1496756597,1630,20,-26,-91,-11,-4,0,0
1,1496756598,1631,1,-34,-106,-11,-2,-2,-4
1,1496756598,1631,2,-40,-102,-7,-2,-2,-2
1,1496756598,1631,3,-31,-90,-9,-4,-2,-2
1,1496756598,1631,4,-21,-93,1,-2,-4,-2
1,1496756598,1631,5,-37,-90,-6,-4,-4,0
1,1496756598,1631,6,-31,-83,-4,-4,-4,0
1,1496756598,1631,7,-25,-87,-10,-4,-4,0
1,1496756598,1631,8,-25,-90,-12,-4,-2,0
1,1496756598,1631,9,-40,-108,-23,-2,-2,0
1,1496756598,1631,10,-38,-117,-22,-4,-2,-2
1,1496756598,1631,11,-38,-120,-15,-6,0,-6
1,1496756598,1631,12,-49,-127,-16,-8,1,-10
1,1496756598,1631,13,-43,-114,-25,-8,0,-10
1,1496756598,1631,14,-34,-111,-16,-2,0,-8
1,1496756598,1631,15,-32,-91,-16,-2,-2,-6
1,1496756598,1631,16,-27,-84,-7,-2,-2,-2
1,1496756598,1631,17,-24,-91,-8,0,-2,-2
1,1496756598,1631,18,-25,-86,-2,-2,-2,0
1,1496756598,1631,19,-26,-80,-5,0,-6,1
1,1496756598,1631,20,-26,-86,-13,0,-4,0
1,1496756598,1632,1,-28,-91,-12,-2,-4,0
1,1496756598,1632,2,-34,-93,-12,0,-4,0
1,1496756598,1632,3,-36,-103,-19,0,-2,-2
1,1496756598,1632,4,-36,-109,-10,-2,-2,-2
1,1496756598,1632,5,-30,-104,-14,-2,-2,-2
1,1496756598,1632,6,-35,-103,-23,-4,0,-2
1,1496756598,1632,7,-35,-97,-14,-4,0,-2
1,1496756598,1632,8,-21,-87,-12,0,-4,-2
1,1496756598,1632,9,-32,-91,-14,-4,0,0
1,1496756598,1632,10,-28,-80,-8,-2,-4,0
1,1496756598,1632,11,-30,-88,-11,-2,-2,0
1,1496756598,1632,12,-34,-103,-13,-2,-4,0
1,1496756598,1632,13,-39,-97,-16,-2,-2,0
1,1496756598,1632,14,-25,-98,-12,0,-2,-4
1,1496756598,1632,15,-40,-106,-15,0,-2,-6
1,1496756598,1632,16,-28,-94,-13,-2,-2,-2
1,1496756598,1632,17,-28,-93,-15,-2,-2,-2
1,1496756598,1632,18,-39,-96,-15,0,-4,-2
1,1496756598,1632,19,-32,-90,-17,-4,0,0
1,1496756598,1632,20,-31,-89,-19,-2,-2,-2
1,1496756599,1633,1,-25,-99,-13,0,-2,-4
1,1496756599,1633,2,-31,-95,-17,-2,-2,-2
1,1496756599,1633,3,-30,-95,-10,-4,0,0
1,1496756599,1633,4,-36,-94,-14,-4,0,-2
1,1496756599,1633,5,-25,-95,-10,-2,-2,0
1,1496756599,1633,6,-30,-95,-12,-2,-2,0
1,1496756599,1633,7,-35,-104,-18,-2,-2,0
1,1496756599,1633,8,-30,-92,-25,-2,0,0
1,1496756599,1633,9,-30,-93,-24,-2,0,-2
1,1496756599,1633,10,-37,-95,-20,-2,0,-2
1,1496756599,1633,11,-33,-93,-14,-2,0,0
1,1496756599,1633,12,-33,-92,-19,-2,0,0
1,1496756599,1633,13,-29,-86,-16,-4,0,0
1,1496756599,1633,14,-26,-90,-14,0,0,0
1,1496756599,1633,15,-37,-90,-21,0,0,-2
1,1496756599,1633,16,-34,-94,-15,-2,0,0
1,1496756599,1633,17,-30,-100,-15,-2,0,-2
1,1496756599,1633,18,-24,-102,-16,0,0,-2
1,1496756599,1633,19,-29,-96,-17,0,0,-2
1,1496756599,1633,20,-32,-99,-24,-2,0,-2
1,1496756600,1634,1,-35,-95,-24,-2,0,-2
1,1496756600,1634,2,-26,-86,-25,0,0,-2
1,1496756600,1634,3,-29,-100,-25,0,-2,-2
1,1496756600,1634,4,-24,-98,-19,0,0,0
1,1496756600,1634,5,-29,-96,-23,-2,0,0
1,1496756600,1634,6,-22,-90,-18,-2,0,0
1,1496756600,1634,7,-30,-92,-19,0,0,0
1,1496756600,1634,8,-24,-84,-19,-2,0,0
1,1496756600,1634,9,-27,-90,-18,0,0,0
1,1496756600,1634,10,-26,-90,-23,-2,0,0
1,1496756600,1634,11,-27,-94,-26,-2,0,0
1,1496756600,1634,12,-25,-92,-26,-2,0,0
1,1496756600,1634,13,-31,-101,-28,-2,0,0
1,1496756600,1634,14,-36,-91,-23,-2,0,0
1,1496756600,1634,15,-34,-101,-28,-2,0,-2
1,1496756600,1634,16,-35,-94,-29,-4,0,-2
1,1496756600,1634,17,-43,-92,-27,-2,0,-2
1,1496756600,1634,18,-30,-91,-37,-2,0,0
1,1496756600,1634,19,-32,-90,-30,-2,1,0
1,1496756600,1634,20,-28,-91,-22,0,3,0
1,1496756601,1635,1,-32,-90,-31,-2,1,0
1,1496756601,1635,2,-31,-87,-32,-2,0,0
1,1496756601,1635,3,-29,-89,-32,-2,1,0
1,1496756601,1635,4,-29,-84,-36,-2,0,0
1,1496756601,1635,5,-26,-88,-23,-2,1,0
1,1496756601,1635,6,-24,-99,-35,0,1,0
1,1496756601,1635,7,-32,-91,-31,0,1,0
1,1496756601,1635,8,-30,-93,-31,0,0,0
1,1496756601,1635,9,-34,-87,-32,-2,1,-2
1,1496756601,1635,10,-21,-93,-24,0,1,0
1,1496756601,1635,11,-18,-85,-32,-2,1,0
1,1496756601,1635,12,-22,-99,-30,-2,0,-2
1,1496756601,1635,13,-22,-98,-24,0,0,0
1,1496756601,1635,14,-19,-92,-33,0,0,0
1,1496756601,1635,15,-27,-85,-24,0,0,0
1,1496756601,1635,16,-21,-86,-34,0,0,0
1,1496756601,1635,17,-33,-92,-23,0,0,0
1,1496756601,1635,18,-31,-91,-28,0,1,0
1,1496756601,1635,19,-26,-95,-30,0,0,-2
1,1496756601,1635,20,-36,-100,-37,0,0,-2
1,1496756602,1636,1,-30,-103,-30,0,0,0
1,1496756602,1636,2,-32,-87,-32,0,0,0
1,1496756602,1636,3,-30,-88,-25,-2,0,-2
1,1496756602,1636,4,-30,-93,-23,-4,3,0
1,1496756602,1636,5,-33,-90,-29,-4,1,0
1,1496756602,1636,6,-23,-85,-28,-2,1,0
1,1496756602,1636,7,-21,-82,-24,-2,0,0
1,1496756602,1636,8,-45,-101,-38,0,0,-2
1,1496756602,1636,9,-27,-97,-27,0,0,0
1,1496756602,1636,10,-26,-97,-33,-4,0,0
1,1496756602,1636,11,-20,-97,-34,-2,0,0
1,1496756602,1636,12,-33,-86,-29,-2,0,-2
1,1496756602,1636,13,-26,-88,-28,-2,0,0
1,1496756602,1636,14,-27,-82,-29,-4,1,0
1,1496756602,1636,15,-31,-89,-29,-2,1,0
1,1496756602,1636,16,-22,-81,-23,-2,0,0
1,1496756602,1636,17,-28,-102,-37,0,-2,0
1,1496756602,1636,18,-29,-100,-46,0,1,0
1,1496756602,1636,19,-21,-80,-28,0,0,0
1,1496756602,1636,20,-32,-75,-25,0,-2,-2
1,1496756603,1637,1,-24,-92,-29,0,1,0
1,1496756603,1637,2,-31,-86,-38,0,0,0
1,1496756603,1637,3,-32,-106,-34,0,0,0
1,1496756603,1637,4,-39,-98,-32,0,0,0
1,1496756603,1637,5,-27,-106,-21,0,3,0
1,1496756603,1637,6,-23,-94,-28,0,0,0
1,1496756603,1637,7,-46,-91,-20,0,0,0
1,1496756603,1637,8,-30,-97,-35,0,0,-2
1,1496756603,1637,9,-23,-97,-37,-2,0,0
1,1496756603,1637,10,-23,-96,-31,0,0,0
1,1496756603,1637,11,-24,-80,-35,-2,1,0
1,1496756603,1637,12,-21,-83,-26,-2,0,1
1,1496756603,1637,13,-33,-85,-39,-2,0,0
1,1496756603,1637,14,-27,-96,-19,-2,0,0
1,1496756603,1637,15,-35,-90,-35,-2,0,0
1,1496756603,1637,16,-31,-82,-31,-2,1,0
1,1496756603,1637,17,-28,-86,-29,-2,3,0
1,1496756603,1637,18,-14,-84,-41,0,0,0
1,1496756603,1637,19,-20,-81,-27,-2,0,0
1,1496756603,1637,20,-27,-92,-44,-2,0,0
1,1496756604,1638,1,-30,-107,-37,-2,1,0
1,1496756604,1638,2,-36,-86,-28,0,0,-2
1,1496756604,1638,3,-22,-80,-29,-2,0,0
1,1496756604,1638,4,-37,-89,-37,-2,0,-2
1,1496756604,1638,5,-20,-77,-27,-2,0,1
1,1496756604,1638,6,-21,-90,-19,0,0,0
1,1496756604,1638,7,-24,-87,-28,-2,1,1
1,1496756604,1638,8,-25,-82,-28,-2,3,1
1,1496756604,1638,9,-26,-80,-37,0,0,0
1,1496756604,1638,10,-26,-79,-34,0,1,0
1,1496756604,1638,11,-21,-85,-35,0,0,0
1,1496756604,1638,12,-25,-98,-29,0,1,0
1,1496756604,1638,13,-22,-82,-36,-2,1,0
1,1496756604,1638,14,-31,-100,-39,0,1,-2
1,1496756604,1638,15,-32,-95,-41,0,0,0
1,1496756604,1638,16,-25,-87,-39,0,0,-2
1,1496756604,1638,17,-24,-83,-23,0,0,0
1,1496756604,1638,18,-21,-80,-24,0,1,0
1,1496756604,1638,19,-27,-104,-27,0,0,0
1,1496756604,1638,20,-29,-79,-31,0,-2,0
1,1496756605,1639,1,-28,-70,-25,-4,1,0
1,1496756605,1639,2,-36,-97,-21,-2,0,-2
1,1496756605,1639,3,-28,-101,-24,-2,0,0
1,1496756605,1639,4,-29,-98,-25,-4,1,3
1,1496756605,1639,5,-33,-91,-29,0,0,0
1,1496756605,1639,6,-39,-94,-32,-2,0,-2
1,1496756605,1639,7,-38,-100,-37,0,0,-2
1,1496756605,1639,8,-26,-111,-23,0,0,-2
1,1496756605,1639,9,-25,-101,-24,0,0,-4
1,1496756605,1639,10,-19,-95,-19,-2,0,-4
1,1496756605,1639,11,-34,-106,-27,0,-4,-2
1,1496756605,1639,12,-28,-102,-24,-2,0,0
1,1496756605,1639,13,-29,-89,-26,-2,0,0
1,1496756605,1639,14,-18,-86,-23,0,0,-2
1,1496756605,1639,15,-31,-92,-27,-2,0,-2
1,1496756605,1639,16,-24,-90,-26,-2,0,0
1,1496756605,1639,17,-24,-81,-24,0,0,0
1,1496756605,1639,18,-28,-97,-26,0,1,-2
1,1496756605,1639,19,-17,-81,-18,-2,1,0
1,1496756605,1639,20,-23,-86,-27,0,0,0
1,1496756606,1640,1,-29,-92,-21,0,0,0
1,1496756606,1640,2,-36,-80,-26,-4,0,0
1,1496756606,1640,3,-25,-86,-26,0,0,0
1,1496756606,1640,4,-24,-95,-22,0,1,0
1,1496756606,1640,5,-17,-89,-21,-2,0,0
1,1496756606,1640,6,-17,-93,-28,0,0,0
1,1496756606,1640,7,-48,-95,-7,-2,0,0
1,1496756606,1640,8,-21,-82,-10,0,0,0
1,1496756606,1640,9,-42,-119,-21,-6,3,0
1,1496756606,1640,10,-45,-85,-34,-6,7,0
1,1496756606,1640,11,-9,-105,-6,0,0,0
1,1496756606,1640,12,-31,-98,-33,0,0,-2
1,1496756606,1640,13,-45,-96,-47,-2,0,0
1,1496756606,1640,14,-34,-101,-36,-6,5,0
1,1496756606,1640,15,-40,-98,-34,-2,1,0
1,1496756606,1640,16,-24,-88,-40,-2,1,0
1,1496756606,1640,17,-26,-71,-20,-2,0,0
1,1496756606,1640,18,-29,-87,-30,0,-2,0
1,1496756606,1640,19,-31,-84,-26,-2,0,0
1,1496756606,1640,20,-25,-84,-28,-4,3,0
1,1496756607,1641,1,-31,-90,-22,-2,1,0
1,1496756607,1641,2,-24,-94,-23,0,0,0
1,1496756607,1641,3,-26,-94,-21,0,1,0
1,1496756607,1641,4,-35,-100,-34,-2,0,-2
1,1496756607,1641,5,-21,-90,-32,0,0,-2
1,1496756607,1641,6,-18,-99,-29,0,0,-2
1,1496756607,1641,7,-37,-93,-29,0,0,0
1,1496756607,1641,8,-28,-84,-21,-2,1,0
1,1496756607,1641,9,-22,-88,-27,0,0,0
1,1496756607,1641,10,-20,-86,-32,0,1,0
1,1496756607,1641,11,-22,-86,-20,-2,1,0
1,1496756607,1641,12,-27,-90,-27,0,0,0
1,1496756607,1641,13,-28,-79,-23,-2,1,0
1,1496756607,1641,14,-26,-85,-24,0,1,0
1,1496756607,1641,15,-36,-94,-26,-2,1,0
1,1496756607,1641,16,-23,-91,-21,-2,1,0
1,1496756607,1641,17,-20,-92,-23,-2,3,0
1,1496756607,1641,18,-33,-100,-44,0,0,0
1,1496756607,1641,19,-29,-85,-36,-4,1,0
1,1496756607,1641,20,-31,-80,-31,-2,-2,0
1,1496756607,1641,1,-24,-91,-43,0,0,-2
1,1496756607,1641,2,-35,-94,-28,0,0,0
1,1496756607,1641,3,-29,-94,-30,-2,3,0
1,1496756607,1641,4,-37,-93,-34,0,1,-2
1,1496756607,1641,5,-27,-89,-28,0,0,-2
1,1496756607,1641,6,-25,-82,-29,0,0,0
1,1496756607,1641,7,-34,-91,-36,-2,0,0
1,1496756607,1641,8,-29,-84,-31,0,0,0
1,1496756607,1641,9,-26,-98,-10,0,-2,0
1,1496756607,1641,10,-25,-82,-24,0,-2,-2
1,1496756607,1641,11,-22,-86,-20,-2,1,0
1,1496756607,1641,12,-27,-90,-27,0,0,0
1,1496756607,1641,13,-28,-79,-23,-2,1,0
1,1496756607,1641,14,-26,-85,-24,0,1,0
1,1496756607,1641,15,-36,-94,-26,-2,1,0
1,1496756607,1641,16,-23,-91,-21,-2,1,0
1,1496756607,1641,17,-20,-92,-23,-2,3,0
1,1496756607,1641,18,-33,-100,-44,0,0,0
1,1496756607,1641,19,-29,-85,-36,-4,1,0
1,1496756607,1641,20,-31,-80,-31,-2,-2,0
1,1496756608,1642,1,-24,-91,-43,0,0,-2
1,1496756608,1642,2,-35,-94,-28,0,0,0
1,1496756608,1642,3,-29,-94,-30,-2,3,0
1,1496756608,1642,4,-37,-93,-34,0,1,-2
1,1496756608,1642,5,-27,-89,-28,0,0,-2
1,1496756608,1642,6,-25,-82,-29,0,0,0
1,1496756608,1642,7,-34,-91,-36,-2,0,0
1,1496756608,1642,8,-29,-84,-31,0,0,0
1,1496756608,1642,9,-26,-98,-10,0,-2,0
1,1496756608,1642,10,-25,-82,-24,0,-2,-2
1,1496756608,1642,11,-31,-93,-23,0,0,-2
1,1496756608,1642,12,-34,-89,-27,-4,3,0
1,1496756608,1642,13,-22,-91,-21,0,1,0
1,1496756608,1642,14,-34,-91,-27,0,0,0
1,1496756608,1642,15,-31,-84,-26,-2,0,1
1,1496756608,1642,16,-25,-86,-33,0,0,0
1,1496756608,1642,17,-29,-94,-26,-2,1,0
1,1496756608,1642,18,-38,-92,-17,-4,5,0
1,1496756608,1642,19,-19,-81,-31,0,1,0
1,1496756608,1642,20,-33,-94,-37,0,-2,-2
1,1496756609,1643,1,-35,-97,-27,0,0,0
1,1496756609,1643,2,-22,-102,-27,0,1,-2
1,1496756609,1643,3,-26,-92,-28,0,0,-2
1,1496756609,1643,4,-34,-103,-21,0,0,-2
1,1496756609,1643,5,-27,-91,-23,0,1,0
1,1496756609,1643,6,-20,-87,-18,0,0,0
1,1496756609,1643,7,-28,-88,-25,0,-2,0
1,1496756609,1643,8,-30,-93,-37,0,-2,0
1,1496756609,1643,9,-29,-88,-22,-4,0,0
1,1496756609,1643,10,-23,-82,-16,-2,0,0
1,1496756609,1643,11,-26,-86,-16,-2,3,0
1,1496756609,1643,12,-21,-90,-29,0,0,0
1,1496756609,1643,13,-30,-98,-30,0,-2,0
1,1496756609,1643,14,-33,-93,-21,0,0,0
1,1496756609,1643,15,-31,-95,-34,0,0,0
1,1496756609,1643,16,-32,-97,-32,-2,0,0
1,1496756609,1643,17,-36,-96,-27,-4,3,0
1,1496756609,1643,18,-24,-86,-27,0,0,0
1,1496756609,1643,19,-33,-98,-46,-2,0,0
1,1496756609,1643,20,-27,-85,-26,0,-2,0
1,1496756610,1644,1,-31,-80,-18,0,0,0
1,1496756610,1644,2,-36,-85,-22,0,0,0
1,1496756610,1644,3,-24,-94,-35,0,0,0
1,1496756610,1644,4,-32,-83,-14,-2,0,1
1,1496756610,1644,5,-23,-84,-42,-2,0,0
1,1496756610,1644,6,-31,-91,-29,-2,1,-2
1,1496756610,1644,7,-33,-85,-25,-2,0,0
1,1496756610,1644,8,-33,-100,-21,-2,1,-4
1,1496756610,1644,9,-36,-96,-25,-2,0,0
1,1496756610,1644,10,-33,-84,-24,-2,1,0
1,1496756610,1644,11,-29,-91,-23,-2,1,-4
1,1496756610,1644,12,-43,-103,-21,-2,0,0
1,1496756610,1644,13,-23,-99,-27,0,0,-2
1,1496756610,1644,14,-27,-81,-29,-2,0,0
1,1496756610,1644,15,-30,-90,-22,0,0,-2
1,1496756610,1644,16,-26,-86,-18,-2,1,0
1,1496756610,1644,17,-25,-85,-33,0,0,0
1,1496756610,1644,18,-31,-104,-37,0,1,-2
1,1496756610,1644,19,-31,-85,-24,0,0,0
1,1496756610,1644,20,-33,-76,-25,0,1,0
1,1496756611,1645,1,-26,-91,-30,0,0,-2
1,1496756611,1645,2,-26,-80,-25,-2,0,1
1,1496756611,1645,3,-26,-93,-38,-2,1,0
1,1496756611,1645,4,-36,-89,-30,-2,1,0
1,1496756611,1645,5,-26,-82,-22,-4,1,0
1,1496756611,1645,6,-33,-93,-29,-4,1,0
1,1496756611,1645,7,-30,-97,-27,-2,0,-2
1,1496756611,1645,8,-38,-91,-25,0,0,0
1,1496756611,1645,9,-27,-104,-23,-2,0,-2
1,1496756611,1645,10,-29,-96,-27,0,0,-2
1,1496756611,1645,11,-24,-91,-27,0,0,-2
1,1496756611,1645,12,-32,-93,-26,-4,1,-2
1,1496756611,1645,13,-28,-84,-25,-2,0,0
1,1496756611,1645,14,-25,-96,-29,0,0,0
1,1496756611,1645,15,-32,-90,-32,0,0,0
1,1496756611,1645,16,-29,-80,-29,-2,0,0
1,1496756611,1645,17,-27,-87,-21,0,1,0
1,1496756611,1645,18,-33,-101,-30,0,1,-2
1,1496756611,1645,19,-33,-91,-31,-2,1,0
1,1496756611,1645,20,-32,-90,-33,-2,1,0
1,1496756612,1646,1,-23,-84,-32,-2,1,0
1,1496756612,1646,2,-33,-88,-39,0,1,0
1,1496756612,1646,3,-33,-91,-31,0,1,0
1,1496756612,1646,4,-26,-85,-33,-2,1,0
1,1496756612,1646,5,-36,-96,-32,-4,1,0
1,1496756612,1646,6,-30,-84,-28,-2,1,0
1,1496756612,1646,7,-32,-83,-32,-2,1,0
1,1496756612,1646,8,-25,-93,-30,-2,1,0
1,1496756612,1646,9,-25,-98,-37,-2,3,0
1,1496756612,1646,10,-27,-101,-37,0,1,0
1,1496756612,1646,11,-33,-87,-33,-4,3,0
1,1496756612,1646,12,-30,-91,-34,-2,5,0
1,1496756612,1646,13,-27,-92,-39,-2,1,0
1,1496756612,1646,14,-33,-92,-30,-2,1,0
1,1496756612,1646,15,-28,-96,-31,0,1,-2
1,1496756612,1646,16,-31,-87,-29,-2,1,-2
1,1496756612,1646,17,-29,-90,-37,0,0,-2
1,1496756612,1646,18,-23,-89,-30,0,1,-2
1,1496756612,1646,19,-29,-90,-29,0,0,-2
1,1496756612,1646,20,-32,-84,-33,0,0,0
1,1496756613,1647,1,-29,-88,-20,0,0,0
1,1496756613,1647,2,-32,-92,-28,0,1,0
1,1496756613,1647,3,-23,-83,-26,0,0,0
1,1496756613,1647,4,-29,-94,-34,0,0,-2
1,1496756613,1647,5,-24,-85,-34,0,0,0
1,1496756613,1647,6,-30,-85,-32,0,0,0
1,1496756613,1647,7,-35,-91,-33,0,1,0
1,1496756613,1647,8,-28,-90,-29,0,0,0
1,1496756613,1647,9,-28,-81,-31,0,1,0
1,1496756613,1647,10,-30,-89,-32,0,1,0
1,1496756613,1647,11,-24,-83,-35,-2,1,0
1,1496756613,1647,12,-29,-78,-28,-2,3,0
1,1496756613,1647,13,-30,-83,-27,0,1,0
1,1496756613,1647,14,-33,-90,-29,0,1,0
1,1496756613,1647,15,-24,-96,-29,-2,1,0
1,1496756613,1647,16,-21,-93,-30,0,0,0
1,1496756613,1647,17,-21,-83,-31,-4,3,0
1,1496756613,1647,18,-31,-91,-25,-4,1,0
1,1496756613,1647,19,-24,-98,-32,0,0,0
1,1496756613,1647,20,-36,-103,-34,-2,1,0
1,1496756613,1648,1,-32,-94,-33,0,1,0
1,1496756613,1648,2,-25,-91,-29,0,3,-2
1,1496756613,1648,3,-37,-109,-31,0,0,-2
1,1496756613,1648,4,-39,-89,-35,0,0,0
1,1496756613,1648,5,-22,-81,-28,0,0,0
1,1496756613,1648,6,-28,-91,-30,0,0,-2
1,1496756613,1648,7,-24,-88,-29,0,0,0
1,1496756613,1648,8,-25,-80,-33,-2,1,0
1,1496756613,1648,9,-25,-80,-23,0,0,0
1,1496756613,1648,10,-25,-85,-22,0,0,1
1,1496756613,1648,11,-32,-93,-29,0,0,0
1,1496756613,1648,12,-17,-95,-31,0,0,0
1,1496756613,1648,13,-27,-88,-27,-2,3,-2
1,1496756613,1648,14,-29,-104,-33,0,3,-4
1,1496756613,1648,15,-35,-106,-27,-2,1,0
1,1496756613,1648,16,-35,-89,-29,-2,0,0
1,1496756613,1648,17,-31,-93,-21,-2,0,0
1,1496756613,1648,18,-28,-81,-23,0,0,0
1,1496756613,1648,19,-24,-87,-26,-2,0,1
1,1496756613,1648,20,-21,-87,-24,0,0,0
1,1496756614,1649,1,-29,-90,-31,-2,0,0
1,1496756614,1649,2,-21,-95,-31,-2,0,0
1,1496756614,1649,3,-24,-104,-31,-2,0,0
1,1496756614,1649,4,-20,-96,-21,0,1,0
1,1496756614,1649,5,-12,-84,-25,0,0,0
1,1496756614,1649,6,-34,-93,-37,-4,1,0
1,1496756614,1649,7,-33,-95,-28,-2,0,0
1,1496756614,1649,8,-26,-95,-23,-2,1,0
1,1496756614,1649,9,-32,-106,-36,-2,1,-2
1,1496756614,1649,10,-26,-94,-37,-4,1,0
1,1496756614,1649,11,-27,-101,-33,-2,0,0
1,1496756614,1649,12,-22,-90,-28,-2,1,-2
1,1496756614,1649,13,-24,-96,-22,-2,0,0
1,1496756614,1649,14,-29,-84,-21,-2,1,1
1,1496756614,1649,15,-30,-88,-24,-2,0,0
1,1496756614,1649,16,-29,-84,-32,0,0,0
1,1496756614,1649,17,-7,-90,-31,-2,0,1
1,1496756614,1649,18,-22,-90,-32,-2,3,0
1,1496756614,1649,19,-22,-90,-30,0,0,0
1,1496756614,1649,20,-25,-94,-32,0,0,0
1,1496756615,1650,1,-27,-99,-27,0,0,0
1,1496756615,1650,2,-23,-91,-15,-2,0,0
1,1496756615,1650,3,-27,-101,-29,0,3,0
1,1496756615,1650,4,-27,-97,-40,-2,1,-2
1,1496756615,1650,5,-25,-108,-27,0,0,0
1,1496756615,1650,6,-19,-98,-32,-2,0,0
1,1496756615,1650,7,-28,-95,-39,0,0,-2
1,1496756615,1650,8,-20,-91,-30,-2,0,0
1,1496756615,1650,9,-20,-99,-32,0,0,0
1,1496756615,1650,10,-25,-68,-26,0,0,1
1,1496756615,1650,11,-21,-89,-24,-2,1,0
1,1496756615,1650,12,-33,-96,-24,0,0,0
1,1496756615,1650,13,-23,-70,-21,-2,0,0
1,1496756615,1650,14,-34,-94,-20,0,0,0
1,1496756615,1650,15,-25,-90,-24,0,0,0
1,1496756615,1650,16,-24,-108,-18,0,0,0
1,1496756615,1650,17,-26,-100,-13,-2,3,3
1,1496756615,1650,18,-24,-95,-35,0,0,-2
1,1496756615,1650,19,-28,-105,-28,0,0,-2
1,1496756615,1650,20,-35,-91,-33,-2,0,0
1,1496756616,1651,1,-25,-90,-23,-2,0,-2
1,1496756616,1651,2,-18,-95,-27,0,0,-2
1,1496756616,1651,3,-32,-92,-27,-2,1,0
1,1496756616,1651,4,-26,-93,-30,0,0,0
1,1496756616,1651,5,-33,-85,-31,-2,1,0
1,1496756616,1651,6,-26,-101,-33,-2,0,-2
1,1496756616,1651,7,-32,-96,-22,-2,1,-2
1,1496756616,1651,8,-19,-89,-30,-2,1,-2
1,1496756616,1651,9,-28,-91,-30,0,0,-2
1,1496756616,1651,10,-26,-84,-19,-2,0,0
1,1496756616,1651,11,-27,-88,-26,-2,0,0
1,1496756616,1651,12,-26,-84,-32,0,0,0
1,1496756616,1651,13,-25,-98,-35,0,1,0
1,1496756616,1651,14,-25,-82,-32,-2,1,0
1,1496756616,1651,15,-29,-89,-35,-2,1,0
1,1496756616,1651,16,-30,-97,-29,-2,1,0
1,1496756616,1651,17,-26,-98,-36,-2,1,0
1,1496756616,1651,18,-29,-97,-39,-2,1,0
1,1496756616,1651,19,-26,-87,-26,0,0,0
1,1496756616,1651,20,-34,-80,-33,-2,1,0
1,1496756617,1651,1,-31,-93,-38,-2,1,0
1,1496756617,1651,2,-35,-99,-37,-2,1,0
1,1496756617,1651,3,-21,-95,-31,0,0,0
1,1496756617,1651,4,-38,-92,-30,0,1,-2
1,1496756617,1651,5,-27,-101,-19,0,1,-4
1,1496756617,1651,6,-17,-95,-21,-2,0,-2
1,1496756617,1651,7,-33,-86,-39,-2,0,-2
1,1496756617,1651,8,-17,-83,-31,0,0,0
1,1496756617,1651,9,-29,-86,-29,0,0,0
1,1496756617,1651,10,-22,-85,-25,0,0,1
1,1496756617,1651,11,-30,-93,-26,-2,0,0
1,1496756617,1651,12,-34,-79,-30,0,0,0
1,1496756617,1651,13,-29,-93,-31,-2,0,0
1,1496756617,1651,14,-31,-94,-33,0,0,0
1,1496756617,1651,15,-23,-97,-28,0,0,-2
1,1496756617,1651,16,-29,-100,-26,-2,1,0
1,1496756617,1651,17,-34,-94,-29,-4,1,0
1,1496756617,1651,18,-14,-91,-28,-2,1,0
1,1496756617,1651,19,-26,-87,-26,0,0,0
1,1496756617,1651,20,-34,-80,-33,-2,1,0
1,1496756617,1652,1,-31,-93,-38,-2,1,0
1,1496756617,1652,2,-35,-99,-37,-2,1,0
1,1496756617,1652,3,-21,-95,-31,0,0,0
1,1496756617,1652,4,-38,-92,-30,0,1,-2
1,1496756617,1652,5,-27,-101,-19,0,1,-4
1,1496756617,1652,6,-17,-95,-21,-2,0,-2
1,1496756617,1652,7,-33,-86,-39,-2,0,-2
1,1496756617,1652,8,-17,-83,-31,0,0,0
1,1496756617,1652,9,-29,-86,-29,0,0,0
1,1496756617,1652,10,-22,-85,-25,0,0,1
1,1496756617,1652,11,-30,-93,-26,-2,0,0
1,1496756617,1652,12,-34,-79,-30,0,0,0
1,1496756617,1652,13,-29,-93,-31,-2,0,0
1,1496756617,1652,14,-31,-94,-33,0,0,0
1,1496756617,1652,15,-23,-97,-28,0,0,-2
1,1496756617,1652,16,-29,-100,-26,-2,1,0
1,1496756617,1652,17,-34,-94,-29,-4,1,0
1,1496756617,1652,18,-14,-91,-28,-2,1,0
1,1496756617,1652,19,-21,-92,-31,-2,0,0
1,1496756617,1652,20,-15,-90,-24,-2,1,0
1,1496756618,1653,1,-24,-84,-26,0,0,0
1,1496756618,1653,2,-30,-88,-36,0,0,0
1,1496756618,1653,3,-28,-84,-32,-2,0,0
1,1496756618,1653,4,-24,-85,-35,0,0,0
1,1496756618,1653,5,-27,-97,-30,0,0,0
1,1496756618,1653,6,-27,-104,-35,0,0,0
1,1496756618,1653,7,-30,-103,-32,0,0,0
1,1496756618,1653,8,-33,-78,-31,0,0,0
1,1496756618,1653,9,-33,-78,-30,-2,1,0
1,1496756618,1653,10,-21,-95,-49,0,0,0
1,1496756618,1653,11,-44,-89,-47,-2,3,0
1,1496756618,1653,12,-29,-103,-35,-2,3,0
1,1496756618,1653,13,-23,-81,-33,0,1,0
1,1496756618,1653,14,-19,-96,-36,0,1,0
1,1496756618,1653,15,-22,-97,-36,0,0,0
1,1496756618,1653,16,-34,-80,-27,-2,1,0
1,1496756618,1653,17,-26,-86,-17,-4,3,0
1,1496756618,1653,18,-26,-85,-32,0,0,0
1,1496756618,1653,19,-15,-99,-32,-4,1,0
1,1496756618,1653,20,-23,-91,-33,0,0,0
1,1496756619,1654,1,-41,-97,-38,0,0,-2
1,1496756619,1654,2,-27,-97,-44,0,1,-4
1,1496756619,1654,3,-23,-94,-32,0,0,0
1,1496756619,1654,4,-25,-107,-42,0,0,-2
1,1496756619,1654,5,-34,-87,-30,0,1,-2
1,1496756619,1654,6,-33,-92,-40,0,0,-2
1,1496756619,1654,7,-31,-97,-40,3,0,-2
1,1496756619,1654,8,-24,-85,-44,1,0,-2
1,1496756619,1654,9,-32,-73,-32,0,0,-2
1,1496756619,1654,10,-18,-73,-31,1,1,0
1,1496756619,1654,11,-33,-75,-38,0,0,5
1,1496756619,1654,12,-17,-74,-27,1,0,5
1,1496756619,1654,13,-18,-84,-24,0,0,1
1,1496756619,1654,14,-23,-82,-28,0,0,0
1,1496756619,1654,15,-13,-93,-28,0,0,1
1,1496756619,1654,16,-31,-92,-31,-2,1,0
1,1496756619,1654,17,-31,-92,-33,0,0,0
1,1496756619,1654,18,-39,-97,-37,0,0,0
1,1496756619,1654,19,-27,-97,-42,-2,1,0
1,1496756619,1654,20,-14,-90,-32,-2,1,0
1,1496756620,1655,1,-26,-87,-34,-2,1,0
1,1496756620,1655,2,-28,-83,-23,-2,3,0
1,1496756620,1655,3,-26,-79,-22,0,0,1
1,1496756620,1655,4,-30,-69,-26,-2,0,3
1,1496756620,1655,5,-28,-82,-24,-2,0,0
1,1496756620,1655,6,-28,-84,-33,-2,0,0
1,1496756620,1655,7,-28,-84,-25,-4,1,1
1,1496756620,1655,8,-28,-83,-28,-2,0,0
1,1496756620,1655,9,-29,-96,-20,-6,3,0
1,1496756620,1655,10,-29,-78,-28,-4,3,1
1,1496756620,1655,11,-28,-88,-46,-10,5,0
1,1496756620,1655,12,-29,-91,-27,-4,0,0
1,1496756620,1655,13,-29,-95,-28,-8,3,0
1,1496756620,1655,14,-26,-99,-39,-4,0,0
1,1496756620,1655,15,-38,-89,-37,-2,0,-4
1,1496756620,1655,16,-28,-112,-44,0,0,-6
1,1496756620,1655,17,-33,-93,-38,0,0,-4
1,1496756620,1655,18,-46,-92,-37,0,0,-6
1,1496756620,1655,19,-38,-97,-31,-2,3,-2
1,1496756620,1655,20,-29,-93,-29,0,0,-4
1,1496756621,1656,1,-21,-86,-31,0,0,-2
1,1496756621,1656,2,-25,-86,-23,0,0,0
1,1496756621,1656,3,-21,-69,-15,-4,0,3
1,1496756621,1656,4,-28,-87,-26,0,0,0
1,1496756621,1656,5,-31,-85,-27,-2,0,1
1,1496756621,1656,6,-13,-88,-23,-2,0,1
1,1496756621,1656,7,-22,-87,-15,-2,3,0
1,1496756621,1656,8,-23,-100,-29,0,0,0
1,1496756621,1656,9,-39,-94,-27,-2,1,0
1,1496756621,1656,10,-34,-97,-43,-4,0,0
1,1496756621,1656,11,-38,-99,-26,-6,3,0
1,1496756621,1656,12,-28,-94,-35,-2,0,0
1,1496756621,1656,13,-32,-90,-25,-2,1,0
1,1496756621,1656,14,-18,-90,-29,0,1,-2
1,1496756621,1656,15,-30,-91,-26,-2,3,-2
1,1496756621,1656,16,-30,-92,-28,0,0,-2
1,1496756621,1656,17,-27,-82,-25,0,0,0
1,1496756621,1656,18,-19,-93,-39,0,0,0
1,1496756621,1656,19,-34,-88,-32,0,0,0
1,1496756621,1656,20,-22,-89,-31,0,0,0
1,1496756622,1657,1,-31,-93,-28,-2,1,0
1,1496756622,1657,2,-27,-95,-24,0,0,0
1,1496756622,1657,3,-37,-84,-27,0,0,0
1,1496756622,1657,4,-23,-90,-25,0,0,0
1,1496756622,1657,5,-27,-91,-24,0,0,0
1,1496756622,1657,6,-26,-91,-24,0,0,0
1,1496756622,1657,7,-21,-96,-24,-2,1,0
1,1496756622,1657,8,-28,-99,-21,-2,1,0
1,1496756622,1657,9,-21,-82,-24,-2,1,0
1,1496756622,1657,10,-20,-84,-27,0,0,0
1,1496756622,1657,11,-21,-77,-27,-2,0,0
1,1496756622,1657,12,-33,-94,-33,-2,0,0
1,1496756622,1657,13,-19,-93,-25,-4,0,0
1,1496756622,1657,14,-33,-104,-28,-2,0,0
1,1496756622,1657,15,-23,-85,-25,-2,1,0
1,1496756622,1657,16,-40,-91,-39,-2,0,0
1,1496756622,1657,17,-32,-87,-34,-2,0,0
1,1496756622,1657,18,-30,-89,-20,-2,0,0
1,1496756622,1657,19,-17,-97,-22,0,0,0
1,1496756622,1657,20,-27,-96,-24,0,0,0
1,1496756623,1658,1,-26,-97,-22,0,0,-2
1,1496756623,1658,2,-24,-90,-26,0,0,0
1,1496756623,1658,3,-28,-91,-34,-2,0,0
1,1496756623,1658,4,-27,-97,-25,0,0,0
1,1496756623,1658,5,-31,-89,-27,0,0,0
1,1496756623,1658,6,-26,-86,-21,0,0,0
1,1496756623,1658,7,-32,-88,-22,-2,1,0
1,1496756623,1658,8,-31,-86,-23,0,0,0
1,1496756623,1658,9,-27,-86,-35,0,0,0
1,1496756623,1658,10,-26,-86,-35,-4,1,0
1,1496756623,1658,11,-26,-82,-22,0,0,0
1,1496756623,1658,12,-38,-102,-35,0,0,-2
1,1496756623,1658,13,-7,-83,-23,-2,1,0
1,1496756623,1658,14,-25,-88,-29,-2,0,0
1,1496756623,1658,15,-25,-87,-34,-2,0,0
1,1496756623,1658,16,-29,-93,-33,-4,1,0
1,1496756623,1658,17,-24,-77,-28,-2,0,1
1,1496756623,1658,18,-27,-87,-31,0,1,-2
1,1496756623,1658,19,-28,-103,-33,0,0,-2
1,1496756623,1658,20,-30,-94,-31,0,3,0
1,1496756624,1659,1,-21,-87,-29,0,0,-4
1,1496756624,1659,2,-29,-93,-30,0,0,-2
1,1496756624,1659,3,-23,-83,-22,0,0,0
1,1496756624,1659,4,-37,-90,-32,0,0,0
1,1496756624,1659,5,-34,-93,-31,-2,0,0
1,1496756624,1659,6,-32,-100,-34,-2,1,0
1,1496756624,1659,7,-30,-87,-27,0,1,0
1,1496756624,1659,8,-29,-87,-19,0,0,0
1,1496756624,1659,9,-33,-88,-30,-4,3,0
1,1496756624,1659,10,-24,-88,-19,0,1,0
1,1496756624,1659,11,-23,-89,-26,-2,1,0
1,1496756624,1659,12,-26,-98,-23,0,0,0
1,1496756624,1659,13,-33,-97,-37,0,0,0
1,1496756624,1659,14,-27,-97,-42,-2,1,0
1,1496756624,1659,15,-28,-90,-26,0,0,0
1,1496756624,1659,16,-20,-75,-25,-2,1,0
1,1496756624,1659,17,-25,-84,-27,-4,1,0
1,1496756624,1659,18,-33,-100,-32,-2,3,0
1,1496756624,1659,19,-32,-94,-31,0,0,0
1,1496756624,1659,20,-27,-98,-34,0,0,0
1,1496756625,1660,1,-29,-84,-25,0,0,0
1,1496756625,1660,2,-32,-92,-33,1,0,-2
1,1496756625,1660,3,-19,-92,-32,0,0,0
1,1496756625,1660,4,-29,-86,-31,0,0,0
1,1496756625,1660,5,-36,-88,-28,0,0,0
1,1496756625,1660,6,-20,-92,-20,-2,0,0
1,1496756625,1660,7,-24,-94,-32,-4,1,0
1,1496756625,1660,8,-26,-87,-30,0,0,-2
1,1496756625,1660,9,-32,-98,-29,-2,1,-2
1,1496756625,1660,10,-35,-82,-31,-2,1,0
1,1496756625,1660,11,-28,-95,-37,0,0,-2
1,1496756625,1660,12,-27,-91,-26,0,1,0
1,1496756625,1660,13,-23,-85,-44,0,0,1
1,1496756625,1660,14,-24,-80,-29,-4,0,1
1,1496756625,1660,15,-26,-87,-30,0,0,0
1,1496756625,1660,16,-21,-97,-28,0,0,0
1,1496756625,1660,17,-26,-92,-33,0,0,1
1,1496756625,1660,18,-32,-87,-24,0,1,0
1,1496756625,1660,19,-32,-91,-39,-2,0,-2
1,1496756625,1660,20,-31,-90,-42,0,1,0
1,1496756626,1661,1,-39,-101,-42,-2,0,0
1,1496756626,1661,2,-38,-88,-33,-2,0,0
1,1496756626,1661,3,-35,-94,-6,0,0,0
1,1496756626,1661,4,-41,-94,-21,0,0,0
1,1496756626,1661,5,-26,-93,-21,0,3,0
1,1496756626,1661,6,-25,-99,-25,0,0,-2
1,1496756626,1661,7,-23,-98,-23,-2,0,0
1,1496756626,1661,8,-27,-93,-33,-4,1,-2
1,1496756626,1661,9,-26,-91,-32,0,1,0
1,1496756626,1661,10,-30,-92,-29,0,0,0
1,1496756626,1661,11,-30,-89,-35,0,0,0
1,1496756626,1661,12,-19,-77,-30,-2,1,0
1,1496756626,1661,13,-22,-85,-25,0,0,0
1,1496756626,1661,14,-31,-87,-25,0,0,0
1,1496756626,1661,15,-29,-90,-39,0,0,0
1,1496756626,1661,16,-26,-87,-17,-2,5,0
1,1496756626,1661,17,-32,-88,-21,0,0,0
1,1496756626,1661,18,-34,-89,-30,0,1,0
1,1496756626,1661,19,-22,-81,-40,-2,0,1
1,1496756626,1661,20,-37,-92,-25,0,0,3
1,1496756627,1662,1,-30,-95,-22,1,0,0
1,1496756627,1662,2,-43,-93,-38,0,3,0
1,1496756627,1662,3,-24,-94,-39,0,0,0
1,1496756627,1662,4,-36,-86,-36,0,0,-2
1,1496756627,1662,5,-30,-84,-24,0,0,0
1,1496756627,1662,6,-39,-83,-30,0,0,0
1,1496756627,1662,7,-33,-79,-24,-2,1,0
1,1496756627,1662,8,-33,-87,-34,0,0,-2
1,1496756627,1662,9,-35,-92,-23,-2,0,-2
1,1496756627,1662,10,-32,-90,-25,0,0,0
1,1496756627,1662,11,-34,-94,-29,0,1,-4
1,1496756627,1662,12,-42,-94,-35,0,0,-2
1,1496756627,1662,13,-29,-81,-23,-4,1,0
1,1496756627,1662,14,-28,-90,-31,-2,1,0
1,1496756627,1662,15,-23,-87,-23,0,0,-2
1,1496756627,1662,16,-33,-88,-38,-2,0,0
1,1496756627,1662,17,-29,-87,-33,-2,1,0
1,1496756627,1662,18,-29,-75,-28,-2,0,0
1,1496756627,1662,19,-37,-97,-33,0,1,-2
1,1496756627,1662,20,-29,-96,-26,0,1,-2
1,1496756628,1663,1,-33,-93,-29,-2,0,-4
1,1496756628,1663,2,-32,-94,-26,-2,1,0
1,1496756628,1663,3,-36,-88,-27,-4,0,0
1,1496756628,1663,4,-20,-87,-30,0,0,0
1,1496756628,1663,5,-39,-92,-27,0,0,0
1,1496756628,1663,6,-29,-96,-26,0,0,-2
1,1496756628,1663,7,-21,-82,-26,-2,0,0
1,1496756628,1663,8,-23,-85,-19,0,0,0
1,1496756628,1663,9,-23,-90,-30,0,0,0
1,1496756628,1663,10,-30,-92,-30,-2,1,0
1,1496756628,1663,11,-32,-93,-28,-2,1,0
1,1496756628,1663,12,-16,-91,-24,0,-2,0
1,1496756628,1663,13,-19,-96,-20,0,0,0
1,1496756628,1663,14,-26,-96,-24,0,0,0
1,1496756628,1663,15,-28,-97,-28,-4,0,0
1,1496756628,1663,16,-25,-79,-30,-2,0,0
1,1496756628,1663,17,-30,-79,-28,0,0,0
1,1496756628,1663,18,-29,-95,-30,-2,1,0
1,1496756628,1663,19,-21,-78,-25,-4,1,1
1,1496756628,1663,20,-27,-96,-25,0,1,0
1,1496756628,1664,1,-33,-91,-26,-2,3,-2
1,1496756628,1664,2,-34,-84,-34,-2,1,0
1,1496756628,1664,3,-27,-94,-33,-2,0,0
1,1496756628,1664,4,-29,-91,-30,0,0,0
1,1496756628,1664,5,-33,-87,-31,-4,0,0
1,1496756628,1664,6,-30,-82,-28,-2,1,1
1,1496756628,1664,7,-30,-90,-27,0,0,0
1,1496756628,1664,8,-21,-88,-25,-2,1,0
1,1496756628,1664,9,-27,-90,-23,-4,0,0
1,1496756628,1664,10,-19,-85,-23,0,0,0
1,1496756628,1664,11,-27,-79,-19,0,0,0
1,1496756628,1664,12,-27,-88,-22,0,0,0
1,1496756628,1664,13,-25,-90,-16,0,0,0
1,1496756628,1664,14,-22,-81,-27,-2,0,0
1,1496756628,1664,15,-26,-88,-34,0,0,0
1,1496756628,1664,16,-24,-92,-28,0,0,0
1,1496756628,1664,17,-21,-83,-23,-2,0,0
1,1496756628,1664,18,-27,-90,-27,-4,1,0
1,1496756628,1664,19,-26,-97,-33,0,0,0
1,1496756628,1664,20,-33,-84,-34,-2,0,0
1,1496756629,1665,1,-28,-91,-31,0,0,0
1,1496756629,1665,2,-29,-90,-21,0,0,0
1,1496756629,1665,3,-28,-82,-26,0,0,0
1,1496756629,1665,4,-30,-96,-31,0,0,0
1,1496756629,1665,5,-30,-105,-28,-2,0,0
1,1496756629,1665,6,-26,-97,-25,0,0,0
1,1496756629,1665,7,-35,-99,-23,-2,1,0
1,1496756629,1665,8,-22,-82,-22,-2,1,0
1,1496756629,1665,9,-27,-91,-29,0,0,0
1,1496756629,1665,10,-27,-92,-22,-2,0,0
1,1496756629,1665,11,-24,-98,-43,0,0,0
1,1496756629,1665,12,-28,-89,-28,-2,0,0
1,1496756629,1665,13,-38,-101,-35,0,1,-2
1,1496756629,1665,14,-31,-88,-29,-2,1,-4
1,1496756629,1665,15,-24,-97,-31,-2,0,0
1,1496756629,1665,16,-22,-93,-29,0,1,-2
1,1496756629,1665,17,-27,-83,-35,0,0,0
1,1496756629,1665,18,-26,-94,-28,-2,0,0
1,1496756629,1665,19,-30,-87,-27,-2,3,0
1,1496756629,1665,20,-22,-97,-29,0,1,0
1,1496756630,1666,1,-20,-84,-18,-2,1,0
1,1496756630,1666,2,-27,-95,-38,0,0,0
1,1496756630,1666,3,-29,-100,-33,0,0,0
1,1496756630,1666,4,-31,-95,-37,0,1,0
1,1496756630,1666,5,-33,-93,-18,0,1,0
1,1496756630,1666,6,-35,-96,-17,-2,1,0
1,1496756630,1666,7,-31,-96,-27,-2,1,0
1,1496756630,1666,8,-27,-86,-23,0,0,0
1,1496756630,1666,9,-32,-87,-34,-2,0,0
1,1496756630,1666,10,-18,-90,-27,0,1,0
1,1496756630,1666,11,-30,-88,-22,0,0,0
1,1496756630,1666,12,-35,-89,-31,-2,1,0
1,1496756630,1666,13,-29,-92,-34,0,0,0
1,1496756630,1666,14,-30,-87,-27,0,1,0
1,1496756630,1666,15,-27,-94,-29,-2,1,0
1,1496756630,1666,16,-27,-82,-30,0,0,-2
1,1496756630,1666,17,-26,-91,-26,0,0,0
1,1496756630,1666,18,-21,-85,-17,0,0,0
1,1496756630,1666,19,-30,-85,-21,0,0,0
1,1496756630,1666,20,-29,-85,-29,-2,0,0
1,1496756631,1667,1,-23,-91,-31,0,0,0
1,1496756631,1667,2,-30,-95,-26,0,0,0
1,1496756631,1667,3,-27,-95,-19,-2,0,0
1,1496756631,1667,4,-35,-94,-33,-2,1,0
1,1496756631,1667,5,-23,-95,-33,-2,0,0
1,1496756631,1667,6,-34,-97,-30,-4,3,0
1,1496756631,1667,7,-27,-92,-36,-6,1,0
1,1496756631,1667,8,-23,-92,-31,-2,0,-2
1,1496756631,1667,9,-28,-89,-27,-4,1,0
1,1496756631,1667,10,-27,-88,-26,-4,1,0
1,1496756631,1667,11,-22,-86,-38,-4,0,0
1,1496756631,1667,12,-16,-86,-30,0,1,0
1,1496756631,1667,13,-26,-94,-37,0,1,0
1,1496756631,1667,14,-19,-93,-31,0,1,0
1,1496756631,1667,15,-38,-79,-29,0,0,0
1,1496756631,1667,16,-32,-92,-32,0,0,0
1,1496756631,1667,17,-19,-90,-30,0,3,0
1,1496756631,1667,18,-27,-103,-30,0,0,0
1,1496756631,1667,19,-22,-97,-34,0,0,0
1,1496756631,1667,20,-33,-106,-36,-2,3,-2
1,1496756632,1668,1,-22,-84,-41,-2,1,0
1,1496756632,1668,2,-32,-91,-37,0,0,-2
1,1496756632,1668,3,-29,-88,-39,-2,1,0
1,1496756632,1668,4,-34,-95,-32,-2,1,0
1,1496756632,1668,5,-30,-81,-44,-2,0,0
1,1496756632,1668,6,-19,-86,-23,-2,0,0
1,1496756632,1668,7,-24,-95,-30,-2,0,0
1,1496756632,1668,8,-35,-96,-23,-4,1,0
1,1496756632,1668,9,-34,-87,-23,-4,1,0
1,1496756632,1668,10,-22,-89,-32,0,0,0
1,1496756632,1668,11,-25,-90,-30,-2,0,0
1,1496756632,1668,12,-31,-98,-21,-2,1,0
1,1496756632,1668,13,-22,-85,-24,-2,3,0
1,1496756632,1668,14,-25,-100,-30,-2,0,-2
1,1496756632,1668,15,-29,-95,-20,-2,3,0
1,1496756632,1668,16,-24,-91,-30,0,0,0
1,1496756632,1668,17,-37,-102,-21,-2,0,-2
1,1496756632,1668,18,-16,-86,-25,0,1,0
1,1496756632,1668,19,-36,-92,-31,0,0,0
1,1496756632,1668,20,-20,-90,-34,0,0,0
1,1496756633,1669,1,-28,-91,-25,0,0,0
1,1496756633,1669,2,-26,-90,-19,0,0,0
1,1496756633,1669,3,-22,-96,-25,-4,1,0
1,1496756633,1669,4,-31,-84,-25,-2,1,0
1,1496756633,1669,5,-25,-92,-31,0,0,0
1,1496756633,1669,6,-27,-92,-20,-2,0,0
1,1496756633,1669,7,-23,-93,-16,-2,3,0
1,1496756633,1669,8,-26,-84,-40,0,0,1
1,1496756633,1669,9,-25,-90,-35,0,1,0
1,1496756633,1669,10,-33,-97,-30,-2,0,0
1,1496756633,1669,11,-26,-90,-29,-2,1,0
1,1496756633,1669,12,-36,-95,-22,0,1,3
1,1496756633,1669,13,-44,-84,-37,-2,0,7
1,1496756633,1669,14,-41,-91,-21,1,-2,11
1,1496756633,1669,15,-33,-89,-25,0,-2,13
1,1496756633,1669,16,-26,-91,-26,0,0,11
1,1496756633,1669,17,-39,-87,33,11,-18,0
1,1496756633,1669,18,-46,-94,-16,0,-6,-2
1,1496756633,1669,19,-37,-81,-28,-2,0,-6
1,1496756633,1669,20,-23,-88,-22,-4,3,-14
1,1496756634,1670,1,-32,-87,-24,0,5,-18
1,1496756634,1670,2,-39,-79,-33,0,0,-4
1,1496756634,1670,3,-30,-94,-30,0,0,-2
1,1496756634,1670,4,-33,-79,-27,0,0,-2
1,1496756634,1670,5,-37,-91,-24,0,1,-6
1,1496756634,1670,6,-35,-100,-30,0,1,-6
1,1496756634,1670,7,-36,-86,-15,-4,1,-4
1,1496756634,1670,8,-31,-91,-28,-2,1,-2
1,1496756634,1670,9,-26,-91,-23,0,0,0
1,1496756634,1670,10,-26,-91,-26,-4,1,0
1,1496756634,1670,11,-27,-92,-29,0,0,0
1,1496756634,1670,12,-27,-94,-34,0,0,0
1,1496756634,1670,13,-31,-87,-29,-2,1,0
1,1496756634,1670,14,-27,-83,-15,-2,0,1
1,1496756634,1670,15,-27,-97,-26,0,1,0
1,1496756634,1670,16,-31,-86,-39,-2,0,0
1,1496756634,1670,17,-40,-99,-31,0,0,0
1,1496756634,1670,18,-29,-85,-25,0,0,0
1,1496756634,1670,19,-30,-92,-30,0,0,0
1,1496756634,1670,20,-34,-84,-28,0,0,0
1,1496756635,1671,1,-38,-93,-29,0,0,0
1,1496756635,1671,2,-31,-97,-28,0,1,0
1,1496756635,1671,3,-30,-97,-26,-2,0,0
1,1496756635,1671,4,-33,-85,-27,0,0,0
1,1496756635,1671,5,-31,-88,-22,0,0,0
1,1496756635,1671,6,-34,-91,-28,0,0,0
1,1496756635,1671,7,-32,-85,-25,0,0,0
1,1496756635,1671,8,-33,-89,-32,-2,0,0
1,1496756635,1671,9,-29,-98,-30,0,1,0
1,1496756635,1671,10,-23,-90,-34,-2,1,0
1,1496756635,1671,11,-33,-94,-33,-2,0,0
1,1496756635,1671,12,-35,-91,-15,-2,1,0
1,1496756635,1671,13,-33,-84,-27,-2,0,0
1,1496756635,1671,14,-28,-87,-28,0,0,0
1,1496756635,1671,15,-28,-86,-36,0,0,0
1,1496756635,1671,16,-25,-90,-27,-2,0,0
1,1496756635,1671,17,-27,-99,-35,0,0,0
1,1496756635,1671,18,-30,-99,-24,0,0,0
1,1496756635,1671,19,-32,-93,-22,-2,1,-2
1,1496756635,1671,20,-30,-94,-27,-2,0,0
1,1496756636,1672,1,-23,-88,-24,-2,0,0
1,1496756636,1672,2,-25,-87,-25,0,0,0
1,1496756636,1672,3,-17,-83,-17,-2,0,0
1,1496756636,1672,4,-28,-93,-24,0,0,0
1,1496756636,1672,5,-38,-94,-42,0,0,0
1,1496756636,1672,6,-27,-92,-31,0,0,0
1,1496756636,1672,7,-35,-89,-24,-2,1,0
1,1496756636,1672,8,-29,-95,-31,-2,1,0
1,1496756636,1672,9,-21,-86,-29,0,0,0
1,1496756636,1672,10,-22,-86,-23,0,1,0
1,1496756636,1672,11,-34,-76,-32,-2,0,0
1,1496756636,1672,12,-31,-91,-29,-2,0,0
1,1496756636,1672,13,-38,-98,-27,-2,0,0
1,1496756636,1672,14,-40,-99,-30,-2,0,0
1,1496756636,1672,15,-33,-88,-29,0,0,0
1,1496756636,1672,16,-33,-92,-28,-2,1,0
1,1496756636,1672,17,-33,-89,-22,-2,1,0
1,1496756636,1672,18,-34,-95,-37,-4,1,0
1,1496756636,1672,19,-38,-88,-24,-2,1,0
1,1496756636,1672,20,-29,-87,-29,-2,1,0
1,1496756637,1673,1,-21,-80,-25,-2,1,0
1,1496756637,1673,2,-28,-77,-32,-2,0,0
1,1496756637,1673,3,-30,-86,-28,-2,0,0
1,1496756637,1673,4,-28,-84,-20,-2,0,0
1,1496756637,1673,5,-31,-84,-23,-2,0,0
1,1496756637,1673,6,-30,-85,-32,-2,0,0
1,1496756637,1673,7,-26,-84,-30,0,1,0
1,1496756637,1673,8,-34,-90,-24,0,0,0
1,1496756637,1673,9,-37,-104,-35,0,1,0
1,1496756637,1673,10,-29,-92,-24,0,3,0
1,1496756637,1673,11,-37,-94,-31,0,1,-2
1,1496756637,1673,12,-31,-83,-35,0,0,-2
1,1496756637,1673,13,-35,-85,-25,0,0,-2
1,1496756637,1673,14,-31,-95,-27,0,1,0
1,1496756637,1673,15,-32,-88,-20,-2,1,0
1,1496756637,1673,16,-22,-85,-25,0,0,0
1,1496756637,1673,17,-25,-86,-28,-2,0,0
1,1496756637,1673,18,-28,-86,-22,-2,1,0
1,1496756637,1673,19,-35,-96,-31,-2,1,0
1,1496756637,1673,20,-25,-98,-31,-2,0,0
1,1496756637,1673,1,-32,-86,-22,-2,0,0
1,1496756637,1673,2,-22,-80,-33,0,0,0
1,1496756637,1673,3,-32,-82,-31,0,0,0
1,1496756637,1673,4,-34,-88,-28,0,1,0
1,1496756637,1673,5,-35,-84,-31,-2,0,1
1,1496756637,1673,6,-30,-85,-32,-2,0,0
1,1496756637,1673,7,-26,-84,-30,0,1,0
1,1496756637,1673,8,-34,-90,-24,0,0,0
1,1496756637,1673,9,-37,-104,-35,0,1,0
1,1496756637,1673,10,-29,-92,-24,0,3,0
1,1496756637,1673,11,-37,-94,-31,0,1,-2
1,1496756637,1673,12,-31,-83,-35,0,0,-2
1,1496756637,1673,13,-35,-85,-25,0,0,-2
1,1496756637,1673,14,-31,-95,-27,0,1,0
1,1496756637,1673,15,-32,-88,-20,-2,1,0
1,1496756637,1673,16,-22,-85,-25,0,0,0
1,1496756637,1673,17,-25,-86,-28,-2,0,0
1,1496756637,1673,18,-28,-86,-22,-2,1,0
1,1496756637,1673,19,-35,-96,-31,-2,1,0
1,1496756637,1673,20,-25,-98,-31,-2,0,0
1,1496756638,1674,1,-32,-86,-22,-2,0,0
1,1496756638,1674,2,-22,-80,-33,0,0,0
1,1496756638,1674,3,-32,-82,-31,0,0,0
1,1496756638,1674,4,-34,-88,-28,0,1,0
1,1496756638,1674,5,-35,-84,-31,-2,0,1
1,1496756638,1674,6,-30,-89,-30,0,0,0
1,1496756638,1674,7,-24,-98,-27,0,0,0
1,1496756638,1674,8,-29,-93,-25,-2,0,0
1,1496756638,1674,9,-31,-102,-32,-2,0,-2
1,1496756638,1674,10,-32,-93,-24,-2,0,-2
1,1496756638,1674,11,-34,-91,-24,0,0,0
1,1496756638,1674,12,-34,-94,-25,0,1,0
1,1496756638,1674,13,-34,-94,-34,0,1,0
1,1496756638,1674,14,-34,-82,-25,0,1,0
1,1496756638,1674,15,-33,-86,-24,0,3,0
1,1496756638,1674,16,-26,-82,-23,0,1,0
1,1496756638,1674,17,-31,-86,-24,0,0,0
1,1496756638,1674,18,-22,-88,-21,0,0,0
1,1496756638,1674,19,-32,-95,-29,0,0,0
1,1496756638,1674,20,-32,-91,-31,0,0,0
1,1496756639,1675,1,-21,-87,-30,-2,0,-2
1,1496756639,1675,2,-35,-98,-20,-2,1,0
1,1496756639,1675,3,-34,-87,-34,-2,0,0
1,1496756639,1675,4,-25,-90,-24,-2,0,0
1,1496756639,1675,5,-30,-92,-24,-2,1,0
1,1496756639,1675,6,-36,-84,-21,-2,0,0
1,1496756639,1675,7,-26,-86,-23,-2,1,0
1,1496756639,1675,8,-25,-77,-22,-2,1,0
1,1496756639,1675,9,-26,-87,-24,0,0,0
1,1496756639,1675,10,-22,-90,-24,0,0,1
1,1496756639,1675,11,-23,-84,-21,0,0,0
1,1496756639,1675,12,-24,-95,-23,0,0,0
1,1496756639,1675,13,-32,-90,-30,0,0,0
1,1496756639,1675,14,-30,-98,-21,-2,0,-2
1,1496756639,1675,15,-31,-99,-31,-4,1,0
1,1496756639,1675,16,-29,-97,-23,-2,1,-2
1,1496756639,1675,17,-25,-85,-21,0,0,0
1,1496756639,1675,18,-30,-96,-27,0,1,0
1,1496756639,1675,19,-26,-95,-25,-2,0,0
1,1496756639,1675,20,-19,-81,-17,-2,0,0
1,1496756640,1676,1,-30,-92,-25,0,0,0
1,1496756640,1676,2,-26,-102,-24,0,1,0
1,1496756640,1676,3,-36,-94,-23,-2,0,0
1,1496756640,1676,4,-29,-86,-31,0,0,0
1,1496756640,1676,5,-29,-101,-17,-2,1,-2
1,1496756640,1676,6,-33,-87,-25,-4,1,0
1,1496756640,1676,7,-25,-83,-13,-2,0,0
1,1496756640,1676,8,-32,-92,-26,-2,3,0
1,1496756640,1676,9,-31,-89,-31,-2,1,0
1,1496756640,1676,10,-37,-100,-25,-2,1,0
1,1496756640,1676,11,-32,-98,-26,-2,0,0
1,1496756640,1676,12,-28,-90,-30,0,0,0
1,1496756640,1676,13,-27,-91,-25,0,0,0
1,1496756640,1676,14,-31,-89,-32,-2,1,0
1,1496756640,1676,15,-33,-102,-29,0,0,-2
1,1496756640,1676,16,-31,-85,-29,0,1,0
1,1496756640,1676,17,-32,-95,-30,-2,3,0
1,1496756640,1676,18,-26,-92,-29,-2,0,0
1,1496756640,1676,19,-30,-89,-23,0,0,0
1,1496756640,1676,20,-33,-101,-30,-2,1,-2
1,1496756641,1677,1,-35,-93,-24,-2,0,0
1,1496756641,1677,2,-40,-90,-27,-2,3,0
1,1496756641,1677,3,-28,-86,-31,0,0,0
1,1496756641,1677,4,-28,-92,-23,-2,1,0
1,1496756641,1677,5,-22,-93,-35,-4,0,0
1,1496756641,1677,6,-25,-89,-30,0,0,1
1,1496756641,1677,7,-28,-91,-27,0,1,0
1,1496756641,1677,8,-34,-96,-31,0,0,-2
1,1496756641,1677,9,-31,-81,-26,-2,0,0
1,1496756641,1677,10,-31,-81,-27,0,1,0
1,1496756641,1677,11,-33,-84,-30,0,1,0
1,1496756641,1677,12,-23,-85,-30,0,1,0
1,1496756641,1677,13,-41,-91,-15,0,-2,3
1,1496756641,1677,14,-32,-70,-7,0,0,1
1,1496756641,1677,15,-39,-99,-40,0,0,-4
1,1496756641,1677,16,-21,-95,-29,-2,0,1
1,1496756641,1677,17,-28,-91,-30,0,1,0
1,1496756641,1677,18,-36,-94,-24,0,1,-2
1,1496756641,1677,19,-32,-91,-33,0,0,0
1,1496756641,1677,20,-35,-103,-30,0,0,0
1,1496756642,1678,1,-36,-94,-29,-2,1,-2
1,1496756642,1678,2,-36,-99,-26,0,0,-2
1,1496756642,1678,3,-37,-101,-31,-2,0,-2
1,1496756642,1678,4,-24,-86,-16,-2,1,0
1,1496756642,1678,5,-30,-85,-29,-2,0,-2
1,1496756642,1678,6,-32,-91,-29,0,0,-2
1,1496756642,1678,7,-32,-78,-27,0,0,0
1,1496756642,1678,8,-33,-93,-22,0,0,-2
1,1496756642,1678,9,-25,-95,-28,0,-2,-2
1,1496756642,1678,10,-29,-92,-24,0,0,0
1,1496756642,1678,11,-30,-91,-29,0,0,0
1,1496756642,1678,12,-29,-94,-31,0,0,0
1,1496756642,1678,13,-28,-86,-18,-2,1,0
1,1496756642,1678,14,-32,-93,-22,-2,1,0
1,1496756642,1678,15,-33,-84,-24,-2,0,0
1,1496756642,1678,16,-32,-91,-22,-2,3,0
1,1496756642,1678,17,-32,-98,-30,0,1,0
1,1496756642,1678,18,-30,-105,-23,0,0,0
1,1496756642,1678,19,-32,-86,-33,-2,1,0
1,1496756642,1678,20,-24,-92,-33,0,1,-2
1,1496756643,1679,1,-32,-95,-29,0,0,0
1,1496756643,1679,2,-30,-81,-19,0,0,0
1,1496756643,1679,3,-36,-80,-23,0,0,0
1,1496756643,1679,4,-29,-100,-35,0,0,0
1,1496756643,1679,5,-39,-86,-20,0,0,1
1,1496756643,1679,6,-27,-83,-29,0,0,0
1,1496756643,1679,7,-37,-98,-27,0,0,-2
1,1496756643,1679,8,-27,-78,-18,-2,0,0
1,1496756643,1679,9,-27,-82,-23,-2,0,0
1,1496756643,1679,10,-35,-95,-25,-2,1,0
1,1496756643,1679,11,-37,-92,-30,-2,1,0
1,1496756643,1679,12,-28,-96,-29,-2,0,0
1,1496756643,1679,13,-26,-98,-29,0,0,-2
1,1496756643,1679,14,-30,-94,-37,-2,1,-2
1,1496756643,1679,15,-34,-91,-19,-2,1,0
1,1496756643,1679,16,-34,-89,-24,-2,1,0
1,1496756643,1679,17,-32,-88,-20,-4,1,0
1,1496756643,1679,18,-24,-86,-21,0,0,1
1,1496756643,1679,19,-30,-80,-19,0,1,1
1,1496756643,1679,20,-35,-91,-30,-2,0,0
1,1496756643,1680,1,-36,-88,-26,0,-2,3
1,1496756643,1680,2,-25,-93,-28,0,0,1
1,1496756643,1680,3,-27,-88,-18,0,0,1
1,1496756643,1680,4,-37,-80,-24,-4,3,0
1,1496756643,1680,5,-36,-90,-24,-2,0,-2
1,1496756643,1680,6,-31,-88,-30,0,1,-2
1,1496756643,1680,7,-31,-96,-34,-2,1,-2
1,1496756643,1680,8,-31,-88,-29,-2,1,0
1,1496756643,1680,9,-24,-86,-24,0,0,0
1,1496756643,1680,10,-35,-89,-26,-4,1,0
1,1496756643,1680,11,-45,-108,-30,-2,3,-2
1,1496756643,1680,12,-40,-90,-23,0,1,-2
1,1496756643,1680,13,-34,-64,-33,-2,0,0
1,1496756643,1680,14,-29,-87,-42,0,0,-2
1,1496756643,1680,15,-29,-95,-34,-2,0,-2
1,1496756643,1680,16,-15,-88,-27,-2,1,1
1,1496756643,1680,17,-36,-85,-31,1,0,0
1,1496756643,1680,18,-40,-88,-31,1,0,0
1,1496756643,1680,19,-39,-89,-20,0,1,0
1,1496756643,1680,20,-36,-93,-30,0,0,0
1,1496756644,1681,1,-39,-93,-30,0,0,-2
1,1496756644,1681,2,-37,-105,-28,0,0,-4
1,1496756644,1681,3,-39,-91,-26,-2,1,0
1,1496756644,1681,4,-36,-85,-25,-2,0,-2
1,1496756644,1681,5,-34,-78,-25,-2,0,0
1,1496756644,1681,6,-33,-81,-23,-2,0,1
1,1496756644,1681,7,-35,-91,-27,0,0,1
1,1496756644,1681,8,-30,-76,-27,0,0,0
1,1496756644,1681,9,-37,-94,-28,0,0,-4
1,1496756644,1681,10,-40,-100,-35,0,0,-6
1,1496756644,1681,11,-38,-90,-26,0,0,-2
1,1496756644,1681,12,-36,-90,-36,0,1,-2
1,1496756644,1681,13,-29,-77,-29,-2,1,0
1,1496756644,1681,14,-31,-96,-26,-2,3,0
1,1496756644,1681,15,-35,-84,-22,0,0,1
1,1496756644,1681,16,-31,-87,-26,0,0,0
1,1496756644,1681,17,-31,-86,-31,0,0,0
1,1496756644,1681,18,-41,-88,-33,-4,1,0
1,1496756644,1681,19,-31,-94,-25,-2,1,0
1,1496756644,1681,20,-38,-80,-28,-6,1,0
1,1496756645,1682,1,-28,-91,-28,0,0,0
1,1496756645,1682,2,-35,-97,-32,0,0,0
1,1496756645,1682,3,-35,-100,-21,-2,0,0
1,1496756645,1682,4,-25,-93,-27,0,0,0
1,1496756645,1682,5,-33,-92,-32,-2,0,0
1,1496756645,1682,6,-30,-94,-31,-2,0,-2
1,1496756645,1682,7,-24,-84,-21,-2,0,0
1,1496756645,1682,8,-25,-92,-30,-2,0,-2
1,1496756645,1682,9,-34,-87,-21,0,0,-2
1,1496756645,1682,10,-28,-99,-23,-2,1,-2
1,1496756645,1682,11,-33,-99,-38,-2,0,-2
1,1496756645,1682,12,-26,-81,-26,0,0,0
1,1496756645,1682,13,-39,-83,-30,0,1,0
1,1496756645,1682,14,-32,-95,-30,0,0,-2
1,1496756645,1682,15,-24,-86,-8,-2,1,0
1,1496756645,1682,16,-25,-85,-25,0,0,0
1,1496756645,1682,17,-17,-73,-25,-4,3,0
1,1496756645,1682,18,-20,-85,-30,-2,1,1
1,1496756645,1682,19,-21,-80,-30,0,0,0
1,1496756645,1682,20,-31,-89,-28,-2,0,0
1,1496756646,1683,1,-26,-84,-30,0,0,0
1,1496756646,1683,2,-30,-91,-26,0,0,0
1,1496756646,1683,3,-34,-97,-34,-2,0,0
1,1496756646,1683,4,-38,-106,-34,-2,0,-2
1,1496756646,1683,5,-32,-100,-28,0,0,0
1,1496756646,1683,6,-28,-94,-29,0,1,-2
1,1496756646,1683,7,-32,-97,-34,0,0,-2
1,1496756646,1683,8,-39,-93,-21,-2,0,0
1,1496756646,1683,9,-42,-100,-25,-2,0,0
1,1496756646,1683,10,-30,-101,-29,0,0,0
1,1496756646,1683,11,-26,-91,-31,0,0,0
1,1496756646,1683,12,-22,-85,-18,-2,1,0
1,1496756646,1683,13,-21,-92,-28,-2,0,0
1,1496756646,1683,14,-27,-84,-27,-4,0,0
1,1496756646,1683,15,-27,-88,-30,-4,1,0
1,1496756646,1683,16,-21,-78,-27,-2,0,0
1,1496756646,1683,17,-30,-89,-37,0,0,0
1,1496756646,1683,18,-27,-95,-31,-4,0,0
1,1496756646,1683,19,-31,-88,-34,-2,0,0
1,1496756646,1683,20,-23,-97,-26,-4,1,0
1,1496756647,1683,1,-32,-96,-27,-4,3,0
1,1496756647,1683,2,-37,-87,-26,-4,3,0
1,1496756647,1683,3,-35,-91,-37,-2,0,-2
1,1496756647,1683,4,-33,-84,-31,-2,0,0
1,1496756647,1683,5,-27,-85,-27,-2,1,0
1,1496756647,1683,6,-30,-108,-41,0,1,0
1,1496756647,1683,7,-28,-77,-32,0,0,0
1,1496756647,1683,8,-28,-78,-30,0,0,0
1,1496756647,1683,9,-27,-96,-34,1,1,0
1,1496756647,1683,10,-32,-94,-25,0,0,0
1,1496756647,1683,11,-44,-91,-34,1,-2,7
1,1496756647,1683,12,-24,-103,-35,1,0,3
1,1496756647,1683,13,-39,-101,-28,0,0,0
1,1496756647,1683,14,-45,-98,-30,0,0,1
1,1496756647,1683,15,-45,-92,-19,-2,0,9
1,1496756647,1683,16,-30,-83,-28,0,0,7
1,1496756647,1683,17,-29,-79,-28,0,1,0
1,1496756647,1683,18,-41,-87,-26,-2,1,-4
1,1496756647,1683,19,-31,-88,-34,-2,0,0
1,1496756647,1683,20,-23,-97,-26,-4,1,0
1,1496756647,1684,1,-32,-96,-27,-4,3,0
1,1496756647,1684,2,-37,-87,-26,-4,3,0
1,1496756647,1684,3,-35,-91,-37,-2,0,-2
1,1496756647,1684,4,-33,-84,-31,-2,0,0
1,1496756647,1684,5,-27,-85,-27,-2,1,0
1,1496756647,1684,6,-30,-108,-41,0,1,0
1,1496756647,1684,7,-28,-77,-32,0,0,0
1,1496756647,1684,8,-28,-78,-30,0,0,0
1,1496756647,1684,9,-27,-96,-34,1,1,0
1,1496756647,1684,10,-32,-94,-25,0,0,0
1,1496756647,1684,11,-44,-91,-34,1,-2,7
1,1496756647,1684,12,-24,-103,-35,1,0,3
1,1496756647,1684,13,-39,-101,-28,0,0,0
1,1496756647,1684,14,-45,-98,-30,0,0,1
1,1496756647,1684,15,-45,-92,-19,-2,0,9
1,1496756647,1684,16,-30,-83,-28,0,0,7
1,1496756647,1684,17,-29,-79,-28,0,1,0
1,1496756647,1684,18,-41,-87,-26,-2,1,-4
1,1496756647,1684,19,-31,-85,-18,-2,0,1
1,1496756647,1684,20,-27,-80,-17,0,0,0
1,1496756648,1685,1,-38,-83,-31,0,3,-2
1,1496756648,1685,2,-34,-84,-23,-2,3,-2
1,1496756648,1685,3,-40,-73,-25,-2,3,0
1,1496756648,1685,4,-31,-82,-27,0,1,-2
1,1496756648,1685,5,-37,-87,-22,-2,3,-6
1,1496756648,1685,6,-41,-82,-22,-2,0,-2
1,1496756648,1685,7,-28,-89,-26,0,0,0
1,1496756648,1685,8,-36,-89,-35,0,0,0
1,1496756648,1685,9,-37,-94,-35,0,0,0
1,1496756648,1685,10,-37,-91,-28,0,0,0
1,1496756648,1685,11,-42,-87,-24,0,0,-2
1,1496756648,1685,12,-35,-99,-30,0,0,-2
1,1496756648,1685,13,-34,-84,-21,0,0,-2
1,1496756648,1685,14,-31,-101,-26,0,0,-4
1,1496756648,1685,15,-34,-97,-22,0,0,-2
1,1496756648,1685,16,-37,-99,-28,0,0,-6
1,1496756648,1685,17,-37,-97,-27,0,0,-4
1,1496756648,1685,18,-37,-97,-34,-4,1,-8
1,1496756648,1685,19,-38,-99,-30,0,0,-6
1,1496756648,1685,20,-33,-88,-27,-2,1,0
1,1496756649,1686,1,-29,-90,-31,-4,1,0
1,1496756649,1686,2,-28,-96,-32,-2,0,0
1,1496756649,1686,3,-29,-90,-26,-2,1,0
1,1496756649,1686,4,-29,-90,-25,-2,0,0
1,1496756649,1686,5,-27,-86,-25,-4,0,0
1,1496756649,1686,6,-21,-80,-34,0,0,1
1,1496756649,1686,7,-31,-78,-23,-2,3,0
1,1496756649,1686,8,-40,-86,-24,-2,0,0
1,1496756649,1686,9,-34,-87,-32,-2,0,1
1,1496756649,1686,10,-32,-93,-29,0,0,0
1,1496756649,1686,11,-34,-85,-32,0,1,0
1,1496756649,1686,12,-25,-94,-31,0,0,-2
1,1496756649,1686,13,-21,-92,-34,0,0,0
1,1496756649,1686,14,-38,-81,-24,0,0,0
1,1496756649,1686,15,-24,-81,-27,0,0,0
1,1496756649,1686,16,-28,-85,-24,0,0,0
1,1496756649,1686,17,-26,-93,-22,0,0,0
1,1496756649,1686,18,-32,-87,-21,-2,1,0
1,1496756649,1686,19,-26,-98,-27,0,0,-2
1,1496756649,1686,20,-24,-85,-23,-2,0,0
1,1496756650,1687,1,-29,-85,-27,-2,0,0
1,1496756650,1687,2,-36,-96,-28,-2,0,0
1,1496756650,1687,3,-38,-94,-28,0,0,0
1,1496756650,1687,4,-32,-96,-29,0,1,0
1,1496756650,1687,5,-32,-100,-29,0,1,-2
1,1496756650,1687,6,-35,-100,-22,-2,1,0
1,1496756650,1687,7,-34,-95,-30,0,0,0
1,1496756650,1687,8,-27,-90,-26,-2,0,0
1,1496756650,1687,9,-30,-83,-32,0,0,0
1,1496756650,1687,10,-40,-88,-31,-2,0,-2
1,1496756650,1687,11,-29,-96,-29,0,0,0
1,1496756650,1687,12,-27,-90,-30,0,0,0
1,1496756650,1687,13,-27,-91,-20,0,0,0
1,1496756650,1687,14,-26,-85,-24,-2,0,0
1,1496756650,1687,15,-32,-85,-25,-2,0,0
1,1496756650,1687,16,-23,-86,-24,0,0,1
1,1496756650,1687,17,-29,-86,-26,-2,0,1
1,1496756650,1687,18,-27,-86,-23,0,0,3
1,1496756650,1687,19,-27,-82,-26,0,-2,5
1,1496756650,1687,20,-30,-89,-27,0,0,3
1,1496756651,1688,1,-36,-94,-40,0,1,0
1,1496756651,1688,2,-33,-94,-33,-2,1,0
1,1496756651,1688,3,-42,-96,-28,-2,0,3
1,1496756651,1688,4,-29,-94,-26,0,0,11
1,1496756651,1688,5,-37,-86,-22,0,0,13
1,1496756651,1688,6,-24,-98,13,13,0,-6
1,1496756651,1688,7,-20,-80,-45,-4,3,0
1,1496756651,1688,8,-53,-90,-28,-2,1,0
1,1496756651,1688,9,-32,-88,-13,-2,0,0
1,1496756651,1688,10,-23,-81,-15,-2,1,0
1,1496756651,1688,11,-42,-91,-25,0,0,0
1,1496756651,1688,12,-38,-76,-26,0,0,0
1,1496756651,1688,13,-42,-73,-13,0,0,0
1,1496756651,1688,14,-35,-79,-22,0,1,1
1,1496756651,1688,15,-45,-90,-24,0,0,0
1,1496756651,1688,16,-44,-91,-29,0,0,0
1,1496756651,1688,17,-43,-83,-39,0,0,-2
1,1496756651,1688,18,-37,-90,-22,0,0,-2
1,1496756651,1688,19,-53,-92,-25,0,1,0
1,1496756651,1688,20,-33,-99,-19,0,0,-2
1,1496756652,1689,1,-37,-102,-14,0,0,-2
1,1496756652,1689,2,-66,-107,-41,0,0,-2
1,1496756652,1689,3,-34,-79,-29,-2,1,0
1,1496756652,1689,4,-56,-91,-24,-2,1,-2
1,1496756652,1689,5,-34,-88,-13,-2,0,0
1,1496756652,1689,6,-21,-80,-33,-4,0,0
1,1496756652,1689,7,-51,-85,-8,0,0,0
1,1496756652,1689,8,-43,-80,-17,0,3,1
1,1496756652,1689,9,-41,-84,-29,-2,0,0
1,1496756652,1689,10,-36,-78,-25,-2,0,0
1,1496756652,1689,11,-52,-104,-21,-2,3,0
1,1496756652,1689,12,-43,-77,-25,0,0,0
1,1496756652,1689,13,-46,-86,-33,0,0,-2
1,1496756652,1689,14,-50,-89,-20,-2,0,0
1,1496756652,1689,15,-47,-93,-26,-2,0,0
1,1496756652,1689,16,-37,-78,-19,0,0,-2
1,1496756652,1689,17,-43,-85,-27,0,0,0
1,1496756652,1689,18,-43,-88,-17,0,1,0
1,1496756652,1689,19,-56,-88,-34,-4,1,1
1,1496756652,1689,20,-30,-80,-24,-2,0,0
1,1496756653,1690,1,-39,-79,-17,0,1,0
1,1496756653,1690,2,-71,-96,-8,-2,0,0
1,1496756653,1690,3,-39,-83,-22,0,-2,0
1,1496756653,1690,4,-62,-76,-48,-2,3,0
1,1496756653,1690,5,-46,-85,-38,0,1,0
1,1496756653,1690,6,-43,-109,-25,-2,3,-2
1,1496756653,1690,7,-2,-59,-14,-2,1,-8
1,1496756653,1690,8,-72,-80,-42,-2,-2,0
1,1496756653,1690,9,-60,-95,-38,0,0,0
1,1496756653,1690,10,-66,-96,-34,-2,1,0
1,1496756653,1690,11,-41,-93,-8,0,5,0
1,1496756653,1690,12,-41,-81,-9,-2,0,0
1,1496756653,1690,13,-56,-84,-10,-2,0,0
1,1496756653,1690,14,-58,-93,-19,-2,0,0
1,1496756653,1690,15,-53,-86,-28,-4,1,1
1,1496756653,1690,16,-54,-85,-14,0,0,-2
1,1496756653,1690,17,-51,-89,-13,-2,0,0
1,1496756653,1690,18,-36,-74,-25,-4,3,0
1,1496756653,1690,19,-44,-82,-16,-4,1,0
1,1496756653,1690,20,-56,-77,-33,-2,1,0
1,1496756654,1691,1,-43,-73,-30,-2,0,0
1,1496756654,1691,2,-48,-75,-22,0,0,0
1,1496756654,1691,3,-63,-79,-40,0,3,0
1,1496756654,1691,4,-71,-90,-41,-4,3,1
1,1496756654,1691,5,-59,-97,-36,-2,5,0
1,1496756654,1691,6,-49,-88,-51,-2,0,-2
1,1496756654,1691,7,-42,-73,-29,-2,1,0
1,1496756654,1691,8,-54,-92,-33,0,1,0
1,1496756654,1691,9,-50,-84,-9,-2,0,0
1,1496756654,1691,10,-56,-77,-31,-2,0,0
1,1496756654,1691,11,-57,-87,-27,0,0,0
1,1496756654,1691,12,-59,-107,-9,0,0,0
1,1496756654,1691,13,-47,-99,-5,-4,0,0
1,1496756654,1691,14,-43,-80,-5,-4,1,0
1,1496756654,1691,15,-44,-79,-30,-4,1,0
1,1496756654,1691,16,-54,-70,-30,-4,3,1
1,1496756654,1691,17,-52,-86,7,-2,0,0
1,1496756654,1691,18,-54,-96,14,-2,-4,0
1,1496756654,1691,19,-50,-80,-5,-4,5,3
1,1496756654,1691,20,-14,-68,-30,-6,3,1
1,1496756655,1692,1,-40,-89,-20,-2,-4,0
1,1496756655,1692,2,-54,-91,-2,0,-2,0
1,1496756655,1692,3,-37,-80,-36,0,1,0
1,1496756655,1692,4,-36,-94,-34,-2,3,-2
1,1496756655,1692,5,-40,-99,-1,0,0,-2
1,1496756655,1692,6,-42,-83,-17,0,0,-2
1,1496756655,1692,7,-41,-99,-9,0,-2,0
1,1496756655,1692,8,-47,-84,-26,-2,0,0
1,1496756655,1692,9,-50,-86,-16,-2,0,0
1,1496756655,1692,10,-46,-86,-29,-2,1,0
1,1496756655,1692,11,-42,-87,-10,0,-2,-2
1,1496756655,1692,12,-39,-87,-39,0,0,-2
1,1496756655,1692,13,-47,-82,-25,-2,0,0
1,1496756655,1692,14,-31,-87,-25,-2,0,-4
1,1496756655,1692,15,-43,-92,-25,-2,0,0
1,1496756655,1692,16,-44,-82,-5,-4,0,-2
1,1496756655,1692,17,-39,-86,-17,3,-2,0
1,1496756655,1692,18,-33,-91,-11,-2,1,0
1,1496756655,1692,19,-52,-91,-26,0,0,0
1,1496756655,1692,20,-40,-88,-13,-2,0,0
1,1496756656,1693,1,-35,-91,-22,-2,0,0
1,1496756656,1693,2,-38,-86,-34,-2,0,0
1,1496756656,1693,3,-47,-89,-27,0,0,0
1,1496756656,1693,4,48,-68,-32,-2,13,-35
1,1496756656,1693,5,-36,-92,5,15,-4,-33
1,1496756656,1693,6,-38,-89,-25,0,0,-4
1,1496756656,1693,7,-41,-97,-23,-4,1,-4
1,1496756656,1693,8,-37,-90,-20,-2,0,-2
1,1496756656,1693,9,-31,-98,-16,0,0,0
1,1496756656,1693,10,-31,-93,-22,-2,0,0
1,1496756656,1693,11,-25,-93,-24,-2,0,-4
1,1496756656,1693,12,-26,-104,-20,0,0,-6
1,1496756656,1693,13,-26,-88,-16,-2,0,-4
1,1496756656,1693,14,-29,-96,-14,-2,-2,-6
1,1496756656,1693,15,-34,-90,-18,-2,0,-4
1,1496756656,1693,16,-26,-87,-16,-2,0,0
1,1496756656,1693,17,-16,-99,-19,-2,-2,0
1,1496756656,1693,18,-20,-96,-22,0,-2,-2
1,1496756656,1693,19,-26,-98,-13,-2,-2,-2
1,1496756656,1693,20,-24,-103,-18,-4,-2,0
1,1496756657,1694,1,-23,-105,-12,-6,0,1
1,1496756657,1694,2,-14,-93,-9,-4,0,1
1,1496756657,1694,3,-17,-92,-8,0,-2,0
1,1496756657,1694,4,-22,-96,-16,-2,0,0
1,1496756657,1694,5,-34,-108,-29,-4,-2,1
1,1496756657,1694,6,-21,-97,-21,-4,-6,0
1,1496756657,1694,7,-23,-98,-10,-2,-2,-6
1,1496756657,1694,8,-33,-97,-18,-2,0,-4
1,1496756657,1694,9,-31,-87,-11,-2,-2,-2
1,1496756657,1694,10,-24,-92,-25,-4,-2,-2
1,1496756657,1694,11,-29,-91,-15,-4,0,0
1,1496756657,1694,12,-29,-96,-17,-2,-4,-4
1,1496756657,1694,13,-29,-87,-9,-4,-2,-2
1,1496756657,1694,14,-22,-102,-17,0,0,-4
1,1496756657,1694,15,-24,-99,-24,0,0,-2
1,1496756657,1694,16,-31,-96,-26,0,0,-2
1,1496756657,1694,17,-27,-91,-21,-2,-2,-2
1,1496756657,1694,18,-30,-93,-20,0,0,0
1,1496756657,1694,19,-22,-92,-10,0,-2,0
1,1496756657,1694,20,-26,-89,-8,-2,0,0
1,1496756657,1694,1,-26,-89,-8,-4,-2,-2
1,1496756657,1694,2,-30,-96,-21,-2,-2,0
1,1496756657,1694,3,-22,-98,-18,-2,-4,-2
1,1496756657,1694,4,-28,-91,-11,-4,0,0
1,1496756657,1694,5,-24,-94,-9,-2,0,-2
1,1496756657,1694,6,-22,-100,-15,-2,-2,0
1,1496756657,1694,7,-20,-94,-21,-2,0,0
1,1496756657,1694,8,-23,-95,-18,-2,0,-2
1,1496756657,1694,9,-27,-89,-13,-2,0,0
1,1496756657,1694,10,-28,-90,-25,-2,0,0
1,1496756657,1694,11,-26,-99,-24,0,0,0
1,1496756657,1694,12,-26,-96,-22,-2,0,0
1,1496756657,1694,13,-26,-82,-22,-2,-2,0
1,1496756657,1694,14,-35,-101,-17,-2,0,0
1,1496756657,1694,15,-24,-99,-24,0,0,-2
1,1496756657,1694,16,-31,-96,-26,0,0,-2
1,1496756657,1694,17,-27,-91,-21,-2,-2,-2
1,1496756657,1694,18,-30,-93,-20,0,0,0
1,1496756657,1694,19,-22,-92,-10,0,-2,0
1,1496756657,1694,20,-26,-89,-8,-2,0,0
1,1496756658,1695,1,-26,-89,-8,-4,-2,-2
1,1496756658,1695,2,-30,-96,-21,-2,-2,0
1,1496756658,1695,3,-22,-98,-18,-2,-4,-2
1,1496756658,1695,4,-28,-91,-11,-4,0,0
1,1496756658,1695,5,-24,-94,-9,-2,0,-2
1,1496756658,1695,6,-22,-100,-15,-2,-2,0
1,1496756658,1695,7,-20,-94,-21,-2,0,0
1,1496756658,1695,8,-23,-95,-18,-2,0,-2
1,1496756658,1695,9,-27,-89,-13,-2,0,0
1,1496756658,1695,10,-28,-90,-25,-2,0,0
1,1496756658,1695,11,-26,-99,-24,0,0,0
1,1496756658,1695,12,-26,-96,-22,-2,0,0
1,1496756658,1695,13,-26,-82,-22,-2,-2,0
1,1496756658,1695,14,-35,-101,-17,-2,0,0
1,1496756658,1695,15,-31,-98,-11,-4,0,-2
1,1496756658,1695,16,-26,-93,-14,-4,0,0
1,1496756658,1695,17,-25,-94,-14,-2,0,0
1,1496756658,1695,18,-28,-93,-26,0,0,0
1,1496756658,1695,19,-26,-99,-21,0,0,0
1,1496756658,1695,20,-20,-93,-15,-4,0,0
1,1496756658,1696,1,-21,-91,-26,-2,0,-2
1,1496756658,1696,2,-31,-99,-24,-2,0,0
1,1496756658,1696,3,-17,-90,-18,-2,0,-2
1,1496756658,1696,4,-29,-91,-16,0,0,0
1,1496756658,1696,5,-26,-94,-28,-2,0,0
1,1496756658,1696,6,-26,-85,-24,-4,0,0
1,1496756658,1696,7,-30,-96,-33,-2,1,0
1,1496756658,1696,8,-32,-81,-28,-4,1,1
1,1496756658,1696,9,-26,-93,-21,-2,3,0
1,1496756658,1696,10,-31,-89,-29,0,0,0
1,1496756658,1696,11,-25,-96,-29,0,0,0
1,1496756658,1696,12,-28,-85,-24,-2,0,0
1,1496756658,1696,13,-31,-91,-32,0,0,-2
1,1496756658,1696,14,-20,-94,-30,0,0,-2
1,1496756658,1696,15,-23,-96,-35,0,0,0
1,1496756658,1696,16,-21,-103,-32,0,0,0
1,1496756658,1696,17,-25,-95,-25,-2,0,0
1,1496756658,1696,18,-27,-86,-31,-2,1,0
1,1496756658,1696,19,-32,-93,-32,0,0,0
1,1496756658,1696,20,-31,-94,-24,0,1,0
1,1496756659,1697,1,-27,-94,-26,0,0,0
1,1496756659,1697,2,-34,-91,-28,0,0,0
1,1496756659,1697,3,-31,-101,-20,-2,1,0
1,1496756659,1697,4,-32,-101,-25,-2,1,0
1,1496756659,1697,5,-27,-100,-28,0,0,-2
1,1496756659,1697,6,-28,-97,-21,-2,0,-2
1,1496756659,1697,7,-30,-93,-24,-4,1,0
1,1496756659,1697,8,-27,-99,-15,-4,1,0
1,1496756659,1697,9,-21,-91,-26,-4,1,0
1,1496756659,1697,10,-23,-86,-27,-2,1,0
1,1496756659,1697,11,-22,-87,-30,-2,0,0
1,1496756659,1697,12,-19,-88,-22,-2,1,0
1,1496756659,1697,13,-29,-85,-21,0,0,1
1,1496756659,1697,14,-27,-92,-27,0,0,1
1,1496756659,1697,15,-29,-95,-34,0,-2,3
1,1496756659,1697,16,-30,-98,-36,0,-2,1
1,1496756659,1697,17,-30,-86,-22,0,0,0
1,1496756659,1697,18,-36,-96,-35,0,0,-4
1,1496756659,1697,19,-35,-102,-31,0,0,-2
1,1496756659,1697,20,-30,-94,-25,0,0,-2
1,1496756660,1698,1,-37,-98,-28,-2,1,-4
1,1496756660,1698,2,-33,-95,-29,-2,1,0
1,1496756660,1698,3,-37,-91,-27,0,0,0
1,1496756660,1698,4,-31,-95,-28,-2,0,0
1,1496756660,1698,5,-25,-90,-26,0,0,0
1,1496756660,1698,6,-28,-87,-20,-2,1,0
1,1496756660,1698,7,-28,-89,-29,-2,1,0
1,1496756660,1698,8,-25,-91,-27,-2,0,-2
1,1496756660,1698,9,-28,-93,-29,-2,0,0
1,1496756660,1698,10,-24,-89,-21,0,0,0
1,1496756660,1698,11,-37,-92,-25,-2,0,0
1,1496756660,1698,12,-32,-95,-26,-2,0,0
1,1496756660,1698,13,-33,-82,-15,-2,1,0
1,1496756660,1698,14,-21,-89,-26,0,0,0
1,1496756660,1698,15,-24,-86,-24,0,0,0
1,1496756660,1698,16,-35,-84,-18,-4,0,0
1,1496756660,1698,17,-36,-88,-14,-2,0,0
1,1496756660,1698,18,-35,-93,-25,0,0,0
1,1496756660,1698,19,-29,-96,-31,-4,1,0
1,1496756660,1698,20,-30,-100,-32,-2,1,1
1,1496756661,1699,1,-30,-83,-21,0,0,0
1,1496756661,1699,2,-39,-91,-27,-2,3,0
1,1496756661,1699,3,-35,-96,-28,-2,0,0
1,1496756661,1699,4,-25,-92,-15,0,0,-2
1,1496756661,1699,5,-28,-96,-22,-2,0,-2
1,1496756661,1699,6,-27,-91,-30,-2,1,0
1,1496756661,1699,7,-36,-91,-24,-2,0,0
1,1496756661,1699,8,-30,-91,-24,0,1,0
1,1496756661,1699,9,-24,-95,-27,0,0,0
1,1496756661,1699,10,-27,-85,-25,-2,0,0
1,1496756661,1699,11,-28,-88,-29,0,0,0
1,1496756661,1699,12,-31,-97,-26,0,0,0
1,1496756661,1699,13,-37,-93,-29,-2,0,0
1,1496756661,1699,14,-39,-92,-27,-2,0,0
1,1496756661,1699,15,-28,-92,-32,-2,1,0
1,1496756661,1699,16,-31,-95,-28,-2,1,0
1,1496756661,1699,17,-31,-97,-27,-2,1,0
1,1496756661,1699,18,-23,-80,-25,-2,1,0
1,1496756661,1699,19,-30,-82,-30,0,1,0
1,1496756661,1699,20,-32,-86,-34,0,0,0
1,1496756662,1700,1,-23,-87,-34,-2,0,0
1,1496756662,1700,2,-35,-94,-23,-2,1,0
1,1496756662,1700,3,-36,-96,-21,-2,0,-2
1,1496756662,1700,4,-36,-80,-34,-2,0,0
1,1496756662,1700,5,-26,-95,-27,0,0,-2
1,1496756662,1700,6,-35,-85,-27,0,0,0
1,1496756662,1700,7,-37,-97,-31,0,0,-2
1,1496756662,1700,8,-36,-109,-23,0,0,-4
1,1496756662,1700,9,-28,-81,-25,-2,1,0
1,1496756662,1700,10,-29,-86,-32,-4,5,0
1,1496756662,1700,11,-16,-93,-25,0,0,0
1,1496756662,1700,12,-34,-84,-31,-2,1,0
1,1496756662,1700,13,-35,-103,-19,0,0,0
1,1496756662,1700,14,-28,-84,-17,0,1,0
1,1496756662,1700,15,-29,-95,-37,0,0,-2
1,1496756662,1700,16,-30,-92,-32,-2,0,0
1,1496756662,1700,17,-29,-95,-31,0,0,0
1,1496756662,1700,18,-38,-93,-39,-2,0,-2
1,1496756662,1700,19,-34,-86,-23,-2,0,0
1,1496756662,1700,20,-35,-76,-36,0,1,0
1,1496756663,1701,1,-28,-87,-26,0,0,0
1,1496756663,1701,2,-35,-80,-33,0,0,0
1,1496756663,1701,3,-27,-93,-30,0,0,0
1,1496756663,1701,4,-23,-90,-25,0,1,0
1,1496756663,1701,5,-33,-95,-27,0,0,0
1,1496756663,1701,6,-29,-95,-25,0,1,0
1,1496756663,1701,7,-32,-91,-38,-2,0,0
1,1496756663,1701,8,-30,-94,-27,-2,1,0
1,1496756663,1701,9,-25,-90,-25,-4,1,3
1,1496756663,1701,10,-25,-84,-26,0,0,5
1,1496756663,1701,11,-38,-84,-21,-2,0,5
1,1496756663,1701,12,-35,-88,-27,0,0,3
1,1496756663,1701,13,-31,-89,-27,0,0,1
1,1496756663,1701,14,-39,-87,-30,0,0,3
1,1496756663,1701,15,-41,-88,-30,0,0,1
1,1496756663,1701,16,-43,-83,-28,0,0,5
1,1496756663,1701,17,-35,-87,-22,0,0,3
1,1496756663,1701,18,-7,-87,-91,-16,11,-8
1,1496756663,1701,19,-35,-89,-44,-8,5,-2
1,1496756663,1701,20,-42,-89,-43,-4,3,0
1,1496756664,1702,1,-32,-88,-24,0,0,-2
1,1496756664,1702,2,-20,-84,-24,0,0,0
1,1496756664,1702,3,-55,-89,-33,-2,1,0
1,1496756664,1702,4,-34,-81,-26,-2,0,0
1,1496756664,1702,5,-46,-93,-51,-4,1,0
1,1496756664,1702,6,-24,-90,-40,-6,7,1
1,1496756664,1702,7,-47,-92,-17,0,-2,0
1,1496756664,1702,8,-32,-88,-19,0,-2,-2
1,1496756664,1702,9,-45,-85,-24,-2,0,-2
1,1496756664,1702,10,-34,-97,-36,0,0,0
1,1496756664,1702,11,-41,-86,-31,-2,1,0
1,1496756664,1702,12,-62,-94,-32,-6,3,0
1,1496756664,1702,13,-44,-81,-26,-2,1,0
1,1496756664,1702,14,-42,-83,-32,-2,3,0
1,1496756664,1702,15,-40,-101,-30,0,0,-2
1,1496756664,1702,16,-34,-74,-28,-2,0,0
1,1496756664,1702,17,-30,-80,-48,-2,1,0
1,1496756664,1702,18,-40,-97,-16,0,-2,-2
1,1496756664,1702,19,-35,-76,-19,1,0,0
1,1496756664,1702,20,-29,-83,-25,-2,0,0
1,1496756665,1703,1,-29,-84,-28,0,1,0
1,1496756665,1703,2,-39,-91,-33,-2,1,0
1,1496756665,1703,3,-35,-85,-33,-2,1,0
1,1496756665,1703,4,-33,-88,-22,0,0,-4
1,1496756665,1703,5,-46,-97,-34,0,1,-4
1,1496756665,1703,6,-34,-81,-25,-2,1,-2
1,1496756665,1703,7,-35,-89,-26,0,0,-2
1,1496756665,1703,8,-39,-87,-28,0,1,0
1,1496756665,1703,9,-32,-91,-27,0,1,0
1,1496756665,1703,10,-38,-97,-28,-2,0,0
1,1496756665,1703,11,-36,-86,-27,-2,0,0
1,1496756665,1703,12,-36,-85,-30,-2,3,0
1,1496756665,1703,13,-33,-90,-35,0,0,0
1,1496756665,1703,14,-29,-79,-29,-2,0,1
1,1496756665,1703,15,-35,-81,-26,0,0,0
1,1496756665,1703,16,-38,-89,-22,-2,1,0
1,1496756665,1703,17,-39,-87,-21,0,0,0
1,1496756665,1703,18,-40,-87,-26,-2,0,0
1,1496756665,1703,19,-30,-87,-32,-2,0,0
1,1496756665,1703,20,-37,-89,-27,0,0,0
1,1496756666,1704,1,-37,-90,-26,-2,1,-2
1,1496756666,1704,2,-43,-92,-26,0,0,-2
1,1496756666,1704,3,-30,-86,-21,0,0,0
1,1496756666,1704,4,-31,-95,-21,0,1,0
1,1496756666,1704,5,-33,-96,-24,0,0,-2
1,1496756666,1704,6,-34,-100,-27,-2,0,0
1,1496756666,1704,7,-35,-85,-29,0,0,0
1,1496756666,1704,8,-32,-84,-27,0,1,-2
1,1496756666,1704,9,-42,-95,-31,0,0,-4
1,1496756666,1704,10,-40,-88,-31,-4,1,-6
1,1496756666,1704,11,-36,-90,-32,-4,3,-10
1,1496756666,1704,12,-35,-92,-29,-2,0,-8
1,1496756666,1704,13,-32,-89,-31,0,0,1
1,1496756666,1704,14,-32,-86,-31,-2,1,0
1,1496756666,1704,15,-38,-91,-27,0,0,-2
1,1496756666,1704,16,-35,-86,-32,0,0,1
1,1496756666,1704,17,-32,-81,-21,0,0,1
1,1496756666,1704,18,-35,-81,-30,-2,1,0
1,1496756666,1704,19,-46,-84,-34,0,0,0
1,1496756666,1704,20,-42,-79,-24,0,0,0
1,1496756667,1705,1,-37,-91,-30,-2,0,0
1,1496756667,1705,2,-37,-92,-26,-2,0,0
1,1496756667,1705,3,-34,-85,-22,0,0,0
1,1496756667,1705,4,-41,-77,-30,-2,0,0
1,1496756667,1705,5,-43,-81,-17,0,0,0
1,1496756667,1705,6,-38,-90,-28,0,0,0
1,1496756667,1705,7,-43,-94,-24,-2,1,0
1,1496756667,1705,8,-50,-100,-36,-4,1,0
1,1496756667,1705,9,-45,-89,-44,-2,1,0
1,1496756667,1705,10,-46,-80,-25,0,0,-2
1,1496756667,1705,11,-45,-95,-32,0,1,-2
1,1496756667,1705,12,-39,-85,-27,-2,0,0
1,1496756667,1705,13,-38,-79,-22,0,0,0
1,1496756667,1705,14,-42,-86,-30,0,0,-2
1,1496756667,1705,15,-53,-84,-24,0,0,0
1,1496756667,1705,16,-40,-95,-35,-2,0,-2
1,1496756667,1705,17,-36,-82,-31,0,0,0
1,1496756667,1705,18,-35,-85,-27,0,1,0
1,1496756667,1705,19,-33,-93,-28,0,1,0
1,1496756667,1705,20,-37,-92,-35,0,0,0
1,1496756667,1705,1,-36,-86,-35,0,0,0
1,1496756667,1705,2,-38,-81,-32,0,0,-2
1,1496756667,1705,3,-39,-89,-27,0,0,-2
1,1496756667,1705,4,-36,-75,-28,0,0,0
1,1496756667,1705,5,-40,-88,-27,-2,1,0
1,1496756667,1705,6,-29,-93,-24,0,0,1
1,1496756667,1705,7,-37,-86,-33,0,0,0
1,1496756667,1705,8,-50,-100,-36,-4,1,0
1,1496756667,1705,9,-45,-89,-44,-2,1,0
1,1496756667,1705,10,-46,-80,-25,0,0,-2
1,1496756667,1705,11,-45,-95,-32,0,1,-2
1,1496756667,1705,12,-39,-85,-27,-2,0,0
1,1496756667,1705,13,-38,-79,-22,0,0,0
1,1496756667,1705,14,-42,-86,-30,0,0,-2
1,1496756667,1705,15,-53,-84,-24,0,0,0
1,1496756667,1705,16,-40,-95,-35,-2,0,-2
1,1496756667,1705,17,-36,-82,-31,0,0,0
1,1496756667,1705,18,-35,-85,-27,0,1,0
1,1496756667,1705,19,-33,-93,-28,0,1,0
1,1496756667,1705,20,-37,-92,-35,0,0,0
1,1496756668,1706,1,-36,-86,-35,0,0,0
1,1496756668,1706,2,-38,-81,-32,0,0,-2
1,1496756668,1706,3,-39,-89,-27,0,0,-2
1,1496756668,1706,4,-36,-75,-28,0,0,0
1,1496756668,1706,5,-40,-88,-27,-2,1,0
1,1496756668,1706,6,-29,-93,-24,0,0,1
1,1496756668,1706,7,-37,-86,-33,0,0,0
1,1496756668,1706,8,-33,-89,-30,0,0,0
1,1496756668,1706,9,-44,-81,-36,-2,1,-2
1,1496756668,1706,10,-36,-93,-30,0,0,0
1,1496756668,1706,11,-44,-93,-33,0,0,0
1,1496756668,1706,12,-37,-93,-26,0,0,0
1,1496756668,1706,13,-34,-88,-24,0,0,-2
1,1496756668,1706,14,-34,-87,-27,0,0,-2
1,1496756668,1706,15,-44,-88,-27,-2,0,0
1,1496756668,1706,16,-36,-80,-29,0,1,0
1,1496756668,1706,17,-39,-85,-25,0,1,0
1,1496756668,1706,18,-36,-80,-30,-2,1,0
1,1496756668,1706,19,-33,-80,-21,-2,1,0
1,1496756668,1706,20,-37,-91,-25,0,0,-2
1,1496756669,1707,1,-37,-90,-30,0,0,0
1,1496756669,1707,2,-37,-94,-27,0,0,0
1,1496756669,1707,3,-38,-86,-29,0,0,0
1,1496756669,1707,4,-32,-89,-25,0,1,0
1,1496756669,1707,5,-36,-89,-28,0,0,0
1,1496756669,1707,6,-36,-84,-30,0,0,0
1,1496756669,1707,7,-37,-93,-27,0,0,-2
1,1496756669,1707,8,-39,-88,-22,0,0,0
1,1496756669,1707,9,-36,-90,-28,0,1,0
1,1496756669,1707,10,-37,-80,-27,0,0,0
1,1496756669,1707,11,-33,-87,-23,0,0,0
1,1496756669,1707,12,-42,-95,-28,-2,1,0
1,1496756669,1707,13,-39,-86,-33,-2,0,0
1,1496756669,1707,14,-36,-83,-39,0,1,0
1,1496756669,1707,15,-39,-90,-26,-2,1,0
1,1496756669,1707,16,-38,-87,-29,0,0,0
1,1496756669,1707,17,-41,-80,-29,-2,0,0
1,1496756669,1707,18,-41,-81,-26,-2,0,0
1,1496756669,1707,19,-47,-88,-27,0,0,0
1,1496756669,1707,20,-38,-89,-18,0,0,0
1,1496756670,1708,1,-36,-89,-29,0,0,0
1,1496756670,1708,2,-35,-82,-25,0,0,0
1,1496756670,1708,3,-39,-87,-31,0,0,0
1,1496756670,1708,4,-29,-85,-20,-2,1,0
1,1496756670,1708,5,-38,-85,-27,0,0,0
1,1496756670,1708,6,-45,-96,-27,0,0,-2
1,1496756670,1708,7,-39,-81,-17,-2,0,0
1,1496756670,1708,8,-39,-91,-21,-2,0,0
1,1496756670,1708,9,-30,-84,-21,-4,0,0
1,1496756670,1708,10,-35,-89,-21,-2,0,0
1,1496756670,1708,11,-28,-83,-21,0,0,0
1,1496756670,1708,12,-39,-85,-20,-2,0,0
1,1496756670,1708,13,-39,-99,-28,-2,0,0
1,1496756670,1708,14,-50,-87,-27,-4,0,0
1,1496756670,1708,15,-27,-88,-29,-2,0,0
1,1496756670,1708,16,-44,-87,-22,0,0,0
1,1496756670,1708,17,-42,-91,-28,0,0,-2
1,1496756670,1708,18,-40,-81,-21,-2,0,0
1,1496756670,1708,19,-31,-90,-30,-2,0,0
1,1496756670,1708,20,-34,-80,-22,-2,1,0
1,1496756671,1709,1,-31,-89,-26,0,0,0
1,1496756671,1709,2,-43,-88,-24,0,0,0
1,1496756671,1709,3,-44,-85,-19,0,0,0
1,1496756671,1709,4,-27,-86,-22,0,0,0
1,1496756671,1709,5,-31,-90,-18,0,1,1
1,1496756671,1709,6,-49,-90,-22,0,0,0
1,1496756671,1709,7,-43,-87,-32,0,1,1
1,1496756671,1709,8,-41,-87,-31,0,1,3
1,1496756671,1709,9,-32,-77,-24,0,0,3
1,1496756671,1709,10,-46,-97,-29,-2,0,1
1,1496756671,1709,11,-45,-86,-26,-2,0,7
1,1496756671,1709,12,-46,-87,-22,0,0,0
1,1496756671,1709,13,-43,-91,-29,0,0,0
1,1496756671,1709,14,-46,-84,-23,0,0,1
1,1496756671,1709,15,-45,-85,-27,0,1,0
1,1496756671,1709,16,-43,-77,-21,0,0,0
1,1496756671,1709,17,-38,-86,-25,-2,1,0
1,1496756671,1709,18,-46,-89,-25,0,0,-2
1,1496756671,1709,19,-44,-92,-20,0,0,-2
1,1496756671,1709,20,-40,-82,-28,0,0,-2
1,1496756672,1710,1,-43,-89,-28,-2,0,0
1,1496756672,1710,2,-48,-84,-28,-2,1,-4
1,1496756672,1710,3,-42,-78,-16,-2,0,0
1,1496756672,1710,4,-37,-95,-30,-2,1,0
1,1496756672,1710,5,-42,-94,-30,0,1,0
1,1496756672,1710,6,-35,-91,-26,-4,1,0
1,1496756672,1710,7,-42,-94,-21,-2,0,1
1,1496756672,1710,8,-46,-86,-25,0,0,0
1,1496756672,1710,9,-40,-89,-27,-2,0,0
1,1496756672,1710,10,-53,-96,-34,-2,0,0
1,1496756672,1710,11,-51,-79,-25,0,0,3
1,1496756672,1710,12,-39,-85,-23,0,0,5
1,1496756672,1710,13,-44,-94,-7,0,-2,-2
1,1496756672,1710,14,-48,-89,-20,-2,1,0
1,1496756672,1710,15,-50,-88,-36,-2,1,0
1,1496756672,1710,16,-34,-79,-30,0,1,0
1,1496756672,1710,17,-40,-82,-35,0,0,0
1,1496756672,1710,18,-56,-84,-34,-2,1,0
1,1496756672,1710,19,-38,-92,-39,-2,1,0
1,1496756672,1710,20,-36,-81,-25,0,0,0
1,1496756673,1711,1,-36,-82,-25,0,0,-2
1,1496756673,1711,2,-25,-80,-14,0,0,-2
1,1496756673,1711,3,-47,-93,-29,0,1,0
1,1496756673,1711,4,-43,-88,-21,-2,0,0
1,1496756673,1711,5,-41,-87,-28,0,-2,-2
1,1496756673,1711,6,-44,-85,-24,0,0,0
1,1496756673,1711,7,-37,-86,-25,0,0,0
1,1496756673,1711,8,-46,-92,-24,0,0,0
1,1496756673,1711,9,-53,-81,-23,0,1,0
1,1496756673,1711,10,-33,-90,-25,0,1,0
1,1496756673,1711,11,-51,-82,-17,0,-2,0
1,1496756673,1711,12,-48,-78,-23,-2,0,0
1,1496756673,1711,13,-49,-90,-14,0,0,0
1,1496756673,1711,14,-47,-79,-24,-2,3,0
1,1496756673,1711,15,-31,-86,-29,-2,3,0
1,1496756673,1711,16,-27,-78,-26,0,0,0
1,1496756673,1711,17,-40,-83,-35,-2,1,0
1,1496756673,1711,18,-47,-89,-35,-2,3,1
1,1496756673,1711,19,-49,-96,-18,0,-2,0
1,1496756673,1711,20,-40,-92,-34,-2,5,0
1,1496756673,1712,1,-35,-91,-35,-2,0,-2
1,1496756673,1712,2,-50,-83,-15,-2,1,0
1,1496756673,1712,3,-42,-83,-13,0,0,-2
1,1496756673,1712,4,-54,-89,-13,-2,0,-2
1,1496756673,1712,5,-41,-91,-29,-2,0,0
1,1496756673,1712,6,-49,-85,-25,-2,0,0
1,1496756673,1712,7,-48,-86,-29,-2,3,1
1,1496756673,1712,8,-50,-89,-14,-2,1,0
1,1496756673,1712,9,-51,-80,-8,-2,0,0
1,1496756673,1712,10,-42,-80,-41,-2,3,0
1,1496756673,1712,11,-53,-88,-9,-2,1,0
1,1496756673,1712,12,-52,-87,-12,0,1,0
1,1496756673,1712,13,-44,-82,-16,0,-2,-2
1,1496756673,1712,14,-36,-86,-12,0,0,-2
1,1496756673,1712,15,-59,-97,-15,0,3,0
1,1496756673,1712,16,-46,-86,-18,0,0,-2
1,1496756673,1712,17,-37,-87,-22,0,0,-4
1,1496756673,1712,18,-52,-96,-10,0,0,0
1,1496756673,1712,19,-44,-78,-25,-2,0,-2
1,1496756673,1712,20,-32,-77,-36,0,0,-2
1,1496756674,1713,1,-44,-86,-25,-2,3,0
1,1496756674,1713,2,-45,-84,-23,-2,1,0
1,1496756674,1713,3,-52,-88,-43,-2,3,0
1,1496756674,1713,4,-44,-85,-17,0,0,0
1,1496756674,1713,5,-55,-89,-15,0,0,-2
1,1496756674,1713,6,-49,-81,-9,0,1,0
1,1496756674,1713,7,-42,-84,-23,0,0,-2
1,1496756674,1713,8,-45,-86,-30,-2,0,0
1,1496756674,1713,9,-53,-85,-21,-2,0,0
1,1496756674,1713,10,-40,-79,-18,0,0,-2
1,1496756674,1713,11,-48,-81,-16,0,0,0
1,1496756674,1713,12,-54,-86,-15,0,0,0
1,1496756674,1713,13,-49,-78,-17,0,0,0
1,1496756674,1713,14,-52,-88,-25,-2,0,0
1,1496756674,1713,15,-61,-88,-17,-2,0,0
1,1496756674,1713,16,-54,-85,-14,0,0,0
1,1496756674,1713,17,-45,-78,-31,0,0,0
1,1496756674,1713,18,-55,-82,-30,0,0,0
1,1496756674,1713,19,-51,-84,-24,-2,0,-2
1,1496756674,1713,20,-40,-84,-28,-2,0,0
1,1496756675,1714,1,-36,-81,-26,-2,0,0
1,1496756675,1714,2,-44,-88,-15,-2,0,0
1,1496756675,1714,3,-53,-88,-21,0,0,0
1,1496756675,1714,4,-50,-84,-19,-2,0,0
1,1496756675,1714,5,-45,-87,-20,0,0,0
1,1496756675,1714,6,-45,-87,-31,-2,0,0
1,1496756675,1714,7,-39,-79,-24,-2,0,0
1,1496756675,1714,8,-34,-77,-20,-2,0,0
1,1496756675,1714,9,-45,-87,-23,-2,0,0
1,1496756675,1714,10,-45,-86,-35,-2,1,0
1,1496756675,1714,11,-49,-94,-18,-2,0,0
1,1496756675,1714,12,-41,-94,-17,-2,1,0
1,1496756675,1714,13,-44,-83,-14,0,0,0
1,1496756675,1714,14,-42,-91,-31,0,0,0
1,1496756675,1714,15,-45,-81,-22,-2,0,0
1,1496756675,1714,16,-42,-82,-27,-2,0,0
1,1496756675,1714,17,-35,-85,-29,-2,0,0
1,1496756675,1714,18,-48,-84,-18,0,0,0
1,1496756675,1714,19,-51,-84,-24,0,0,0
1,1496756675,1714,20,-44,-88,-17,-2,0,0
1,1496756676,1715,1,-42,-85,-19,0,0,0
1,1496756676,1715,2,-51,-86,-28,-2,0,0
1,1496756676,1715,3,-49,-84,-31,-2,0,0
1,1496756676,1715,4,-50,-83,-29,0,0,0
1,1496756676,1715,5,-50,-83,-26,0,0,0
1,1496756676,1715,6,-34,-83,-21,0,0,0
1,1496756676,1715,7,-52,-84,-37,-2,0,0
1,1496756676,1715,8,-38,-86,-24,-2,0,0
1,1496756676,1715,9,-47,-89,-19,-2,0,0
1,1496756676,1715,10,-46,-88,-23,-2,0,0
1,1496756676,1715,11,-58,-88,-23,-2,0,0
1,1496756676,1715,12,-54,-85,-23,-2,0,0
1,1496756676,1715,13,-53,-88,-20,0,0,0
1,1496756676,1715,14,-39,-83,-26,0,0,-2
1,1496756676,1715,15,-47,-84,-15,-2,0,0
1,1496756676,1715,16,-54,-85,-25,-2,0,-2
1,1496756676,1715,17,-47,-82,-20,-2,0,0
1,1496756676,1715,18,-45,-86,-28,-2,0,0
1,1496756676,1715,19,-42,-85,-23,-2,0,-2
1,1496756676,1715,20,-40,-81,-21,-2,0,0
1,1496756677,1716,1,-50,-80,-18,-2,0,0
1,1496756677,1716,2,-45,-80,-24,-2,0,0
1,1496756677,1716,3,-47,-82,-24,-2,0,0
1,1496756677,1716,4,-49,-85,-24,-2,0,0
1,1496756677,1716,5,-48,-89,-23,-2,0,0
1,1496756677,1716,6,-49,-84,-17,-4,0,0
1,1496756677,1716,7,-51,-79,-16,-2,0,0
1,1496756677,1716,8,-50,-80,-23,-2,0,0
1,1496756677,1716,9,-41,-82,-21,-2,0,0
1,1496756677,1716,10,-54,-85,-18,-2,0,0
1,1496756677,1716,11,-48,-82,-24,-2,0,0
1,1496756677,1716,12,-48,-82,-25,-2,0,0
1,1496756677,1716,13,-65,-78,-28,-2,0,0
1,1496756677,1716,14,-46,-82,-18,-2,0,0
1,1496756677,1716,15,-53,-79,-23,-2,0,0
1,1496756677,1716,16,-45,-85,-15,-2,0,0
1,1496756677,1716,17,-51,-81,-31,-2,0,0
1,1496756677,1716,18,-54,-86,-17,-2,0,0
1,1496756677,1716,19,-52,-84,-26,-2,0,-2
1,1496756677,1716,20,-51,-86,-21,-2,0,-2
1,1496756677,1716,1,-50,-80,-18,-2,0,0
1,1496756677,1716,2,-45,-80,-24,-2,0,0
1,1496756677,1716,3,-47,-82,-24,-2,0,0
1,1496756677,1716,4,-49,-85,-24,-2,0,0
1,1496756677,1716,5,-48,-89,-23,-2,0,0
1,1496756677,1716,6,-49,-84,-17,-4,0,0
1,1496756677,1716,7,-51,-79,-16,-2,0,0
1,1496756677,1716,8,-50,-80,-23,-2,0,0
1,1496756677,1716,9,-41,-82,-21,-2,0,0
1,1496756677,1716,10,-54,-85,-18,-2,0,0
1,1496756677,1716,11,-48,-82,-24,-2,0,0
1,1496756677,1716,12,-48,-82,-25,-2,0,0
1,1496756677,1716,13,-65,-78,-28,-2,0,0
1,1496756677,1716,14,-46,-82,-18,-2,0,0
1,1496756677,1716,15,-53,-79,-23,-2,0,0
1,1496756677,1716,16,-45,-85,-15,-2,0,0
1,1496756677,1716,17,-51,-81,-31,-2,0,0
1,1496756677,1716,18,-54,-86,-17,-2,0,0
1,1496756677,1716,19,-52,-84,-26,-2,0,-2
1,1496756677,1716,20,-51,-86,-21,-2,0,-2
1,1496756678,1717,1,-43,-82,-21,-2,0,-2
1,1496756678,1717,2,-48,-74,-23,-2,0,0
1,1496756678,1717,3,-44,-79,-17,-2,0,0
1,1496756678,1717,4,-48,-82,-21,-2,1,0
1,1496756678,1717,5,-54,-85,-19,-2,1,0
1,1496756678,1717,6,-52,-86,-34,-2,0,-2
1,1496756678,1717,7,-60,-87,-18,-2,0,0
1,1496756678,1717,8,-56,-85,-25,-2,0,0
1,1496756678,1717,9,-53,-82,-18,-2,0,0
1,1496756678,1717,10,-50,-82,-16,-2,0,0
1,1496756678,1717,11,-58,-77,-27,-2,1,0
1,1496756678,1717,12,-52,-77,-35,-2,0,0
1,1496756678,1717,13,-51,-81,-16,-2,0,0
1,1496756678,1717,14,-44,-78,-26,-2,0,0
1,1496756678,1717,15,-55,-83,-21,-2,0,0
1,1496756678,1717,16,-55,-82,-27,0,0,0
1,1496756678,1717,17,-51,-85,-35,-2,0,0
1,1496756678,1717,18,-48,-83,-23,-2,0,0
1,1496756678,1717,19,-46,-82,-25,-2,0,-2
1,1496756678,1717,20,-49,-83,-29,-2,0,0
1,1496756679,1718,1,-48,-83,-27,-2,0,0
1,1496756679,1718,2,-44,-82,-24,-2,0,0
1,1496756679,1718,3,-54,-86,-26,-2,0,0
1,1496756679,1718,4,-43,-83,-22,0,0,0
1,1496756679,1718,5,-47,-83,-26,-2,0,0
1,1496756679,1718,6,-47,-85,-29,-2,1,0
1,1496756679,1718,7,-46,-87,-19,0,0,0
1,1496756679,1718,8,-48,-80,-31,-2,0,0
1,1496756679,1718,9,-49,-77,-32,0,0,0
1,1496756679,1718,10,-48,-82,-29,0,0,0
1,1496756679,1718,11,-50,-78,-23,0,0,0
1,1496756679,1718,12,-53,-84,-22,0,0,0
1,1496756679,1718,13,-48,-82,-25,0,0,0
1,1496756679,1718,14,-55,-87,-27,0,0,0
1,1496756679,1718,15,-46,-83,-25,-2,0,0
1,1496756679,1718,16,-48,-83,-24,0,0,0
1,1496756679,1718,17,-45,-83,-21,0,0,0
1,1496756679,1718,18,-46,-88,-21,0,0,0
1,1496756679,1718,19,-46,-87,-24,0,0,0
1,1496756679,1718,20,-43,-89,-28,-2,0,0
1,1496756680,1719,1,-39,-85,-23,0,0,0
1,1496756680,1719,2,-43,-88,-28,-2,0,0
1,1496756680,1719,3,-42,-85,-24,-2,0,0
1,1496756680,1719,4,-42,-85,-25,-2,0,0
1,1496756680,1719,5,-42,-88,-28,-2,0,0
1,1496756680,1719,6,-43,-83,-23,-2,0,0
1,1496756680,1719,7,-41,-83,-31,-2,0,0
1,1496756680,1719,8,-43,-85,-26,-2,0,0
1,1496756680,1719,9,-39,-83,-25,-2,0,0
1,1496756680,1719,10,-44,-88,-26,0,0,0
1,1496756680,1719,11,-46,-88,-27,-2,0,0
1,1496756680,1719,12,-44,-82,-25,0,0,0
1,1496756680,1719,13,-42,-86,-26,-2,0,0
1,1496756680,1719,14,-47,-83,-23,-2,0,0
1,1496756680,1719,15,-46,-82,-25,-2,0,0
1,1496756680,1719,16,-51,-86,-27,-2,0,0
1,1496756680,1719,17,-48,-85,-23,0,0,0
1,1496756680,1719,18,-47,-82,-29,-2,0,0
1,1496756680,1719,19,-50,-82,-25,-2,0,0
1,1496756680,1719,20,-43,-78,-26,0,0,0
1,1496756681,1720,1,-45,-83,-25,0,0,0
1,1496756681,1720,2,-46,-86,-24,0,0,0
1,1496756681,1720,3,-49,-84,-23,0,0,0
1,1496756681,1720,4,-49,-81,-25,0,0,0
1,1496756681,1720,5,-47,-84,-25,0,0,0
1,1496756681,1720,6,-50,-84,-24,-2,0,0
1,1496756681,1720,7,-47,-81,-24,0,0,0
1,1496756681,1720,8,-49,-85,-24,0,0,0
1,1496756681,1720,9,-51,-84,-26,0,0,0
1,1496756681,1720,10,-47,-84,-26,0,0,0
1,1496756681,1720,11,-47,-82,-28,0,0,0
1,1496756681,1720,12,-46,-85,-23,0,0,0
1,1496756681,1720,13,-47,-82,-28,0,0,0
1,1496756681,1720,14,-43,-85,-28,0,0,0
1,1496756681,1720,15,-47,-86,-25,-2,0,0
1,1496756681,1720,16,-44,-85,-27,-2,0,0
1,1496756681,1720,17,-39,-84,-27,0,0,0
1,1496756681,1720,18,-41,-84,-24,0,0,0
1,1496756681,1720,19,-38,-85,-26,0,0,0
1,1496756681,1720,20,-39,-83,-27,-2,0,0
1,1496756682,1721,1,-44,-86,-25,-2,1,0
1,1496756682,1721,2,-43,-86,-26,0,0,0
1,1496756682,1721,3,-45,-87,-27,0,0,0
1,1496756682,1721,4,-44,-88,-29,-2,0,0
1,1496756682,1721,5,-39,-87,-26,0,0,0
1,1496756682,1721,6,-44,-83,-25,-2,0,0
1,1496756682,1721,7,-38,-84,-25,0,0,0
1,1496756682,1721,8,-44,-84,-26,0,0,0
1,1496756682,1721,9,-43,-87,-25,0,0,0
1,1496756682,1721,10,-45,-84,-23,0,0,0
1,1496756682,1721,11,-41,-86,-26,-2,1,0
1,1496756682,1721,12,-44,-85,-28,-2,0,0
1,1496756682,1721,13,-43,-83,-26,0,0,0
1,1496756682,1721,14,-44,-85,-26,0,0,0
1,1496756682,1721,15,-44,-86,-27,-2,0,0
1,1496756682,1721,16,-45,-88,-28,0,0,0
1,1496756682,1721,17,-43,-88,-27,-2,0,0
1,1496756682,1721,18,-41,-87,-30,-2,0,0
1,1496756682,1721,19,-37,-89,-27,-2,0,0
1,1496756682,1721,20,-34,-84,-27,-2,0,0
1,1496756683,1722,1,-38,-85,-29,-2,0,0
1,1496756683,1722,2,-37,-89,-28,0,0,0
1,1496756683,1722,3,-39,-84,-29,-2,0,0
1,1496756683,1722,4,-35,-85,-26,0,0,0
1,1496756683,1722,5,-39,-89,-27,0,0,0
1,1496756683,1722,6,-40,-88,-28,-2,0,0
1,1496756683,1722,7,-40,-88,-28,-2,0,0
1,1496756683,1722,8,-41,-88,-27,-2,0,0
1,1496756683,1722,9,-39,-87,-28,0,0,0
1,1496756683,1722,10,-35,-87,-26,0,0,0
1,1496756683,1722,11,-36,-88,-28,0,0,0
1,1496756683,1722,12,-37,-89,-28,0,0,0
1,1496756683,1722,13,-39,-87,-27,-2,0,0
1,1496756683,1722,14,-32,-88,-29,-2,0,0
1,1496756683,1722,15,-37,-88,-28,-2,0,0
1,1496756683,1722,16,-40,-87,-25,-2,0,0
1,1496756683,1722,17,-35,-87,-27,-2,0,0
1,1496756683,1722,18,-36,-87,-27,-2,0,0
1,1496756683,1722,19,-37,-86,-27,0,0,0
1,1496756683,1722,20,-39,-86,-26,0,0,0
1,1496756684,1723,1,-35,-86,-26,0,0,0
1,1496756684,1723,2,-36,-87,-27,0,0,0
1,1496756684,1723,3,-35,-88,-26,0,0,0
1,1496756684,1723,4,-38,-89,-27,-2,0,0
1,1496756684,1723,5,-39,-87,-27,0,0,0
1,1496756684,1723,6,-37,-87,-28,0,0,0
1,1496756684,1723,7,-37,-89,-27,0,0,0
1,1496756684,1723,8,-35,-88,-27,0,0,0
1,1496756684,1723,9,-35,-86,-28,-2,0,0
1,1496756684,1723,10,-37,-87,-27,0,0,0
1,1496756684,1723,11,-38,-88,-27,0,0,0
1,1496756684,1723,12,-40,-89,-28,0,0,0
1,1496756684,1723,13,-40,-88,-27,0,0,0
1,1496756684,1723,14,-36,-87,-28,0,0,0
1,1496756684,1723,15,-38,-88,-27,0,0,0
1,1496756684,1723,16,-38,-87,-27,0,0,0
1,1496756684,1723,17,-40,-87,-26,0,0,0
1,1496756684,1723,18,-38,-89,-26,0,0,0
1,1496756684,1723,19,-37,-86,-27,0,0,0
1,1496756684,1723,20,-37,-85,-28,0,0,0
1,1496756685,1724,1,-37,-86,-26,0,0,0
1,1496756685,1724,2,-38,-87,-28,0,0,0
1,1496756685,1724,3,-38,-89,-28,-2,0,0
1,1496756685,1724,4,-38,-88,-27,0,0,0
1,1496756685,1724,5,-36,-87,-26,-2,0,0
1,1496756685,1724,6,-34,-87,-26,-2,0,0
1,1496756685,1724,7,-36,-87,-26,0,0,0
1,1496756685,1724,8,-41,-90,-26,0,0,0
1,1496756685,1724,9,-40,-87,-28,-2,0,0
1,1496756685,1724,10,-40,-87,-28,-2,0,0
1,1496756685,1724,11,-37,-85,-27,0,0,0
1,1496756685,1724,12,-35,-85,-27,-2,0,0
1,1496756685,1724,13,-40,-89,-29,0,0,0
1,1496756685,1724,14,-38,-87,-27,-2,0,0
1,1496756685,1724,15,-39,-88,-28,0,0,0
1,1496756685,1724,16,-38,-88,-26,0,0,0
1,1496756685,1724,17,-38,-89,-26,0,0,0
1,1496756685,1724,18,-36,-88,-28,0,0,0
1,1496756685,1724,19,-38,-89,-27,0,0,0
1,1496756685,1724,20,-38,-87,-26,-2,0,0
1,1496756686,1725,1,-40,-90,-28,-2,0,0
1,1496756686,1725,2,-39,-87,-27,0,0,0
1,1496756686,1725,3,-39,-89,-27,0,0,0
1,1496756686,1725,4,-36,-85,-26,-2,0,0
1,1496756686,1725,5,-37,-86,-27,0,0,0
1,1496756686,1725,6,-35,-85,-27,-2,0,0
1,1496756686,1725,7,-37,-88,-27,0,0,0
1,1496756686,1725,8,-39,-88,-27,0,0,0
1,1496756686,1725,9,-38,-89,-27,0,0,0
1,1496756686,1725,10,-36,-89,-28,-2,0,0
1,1496756686,1725,11,-39,-87,-27,0,0,0
1,1496756686,1725,12,-37,-89,-28,0,0,0
1,1496756686,1725,13,-41,-87,-27,0,0,0
1,1496756686,1725,14,-41,-87,-27,0,0,0
1,1496756686,1725,15,-38,-87,-28,0,0,0
1,1496756686,1725,16,-37,-88,-29,-2,0,0
1,1496756686,1725,17,-37,-88,-26,0,0,0
1,1496756686,1725,18,-36,-87,-27,-2,0,0
1,1496756686,1725,19,-37,-89,-27,0,0,0
1,1496756686,1725,20,-38,-87,-27,0,0,0
1,1496756687,1726,1,-37,-89,-27,0,0,0
1,1496756687,1726,2,-35,-87,-26,-2,0,0
1,1496756687,1726,3,-38,-89,-27,-2,0,0
1,1496756687,1726,4,-35,-89,-28,0,0,0
1,1496756687,1726,5,-37,-88,-26,0,0,0
1,1496756687,1726,6,-40,-89,-28,-2,0,0
1,1496756687,1726,7,-39,-89,-27,0,0,0
1,1496756687,1726,8,-38,-88,-28,0,0,0
1,1496756687,1726,9,-38,-89,-28,0,0,0
1,1496756687,1726,10,-40,-89,-27,0,0,0
1,1496756687,1726,11,-38,-88,-28,0,0,0
1,1496756687,1726,12,-38,-88,-27,0,0,0
1,1496756687,1726,13,-40,-88,-27,0,0,0
1,1496756687,1726,14,-38,-87,-28,-2,0,0
1,1496756687,1726,15,-38,-85,-28,-2,0,0
1,1496756687,1726,16,-37,-89,-27,0,0,0
1,1496756687,1726,17,-37,-86,-27,0,0,0
1,1496756687,1726,18,-37,-86,-26,-2,0,0
1,1496756687,1726,19,-38,-85,-27,-2,0,0
1,1496756687,1726,20,-36,-86,-26,-2,0,0
1,1496756687,1726,1,-38,-86,-27,0,0,0
1,1496756687,1726,2,-37,-88,-26,0,0,0
1,1496756687,1726,3,-35,-87,-26,0,0,0
1,1496756687,1726,4,-38,-87,-28,0,0,0
1,1496756687,1726,5,-36,-88,-27,0,0,0
1,1496756687,1726,6,-39,-88,-27,0,0,0
1,1496756687,1726,7,-37,-88,-27,0,0,0
1,1496756687,1726,8,-36,-88,-27,0,0,0
1,1496756687,1726,9,-36,-87,-26,0,0,0
1,1496756687,1726,10,-39,-88,-27,0,0,0
1,1496756687,1726,11,-38,-87,-28,0,0,0
1,1496756687,1726,12,-37,-90,-27,0,0,0
1,1496756687,1726,13,-39,-86,-27,0,0,0
1,1496756687,1726,14,-36,-87,-26,0,0,0
1,1496756687,1726,15,-38,-85,-28,-2,0,0
1,1496756687,1726,16,-37,-89,-27,0,0,0
1,1496756687,1726,17,-37,-86,-27,0,0,0
1,1496756687,1726,18,-37,-86,-26,-2,0,0
1,1496756687,1726,19,-38,-85,-27,-2,0,0
1,1496756687,1726,20,-36,-86,-26,-2,0,0
1,1496756688,1727,1,-38,-86,-27,0,0,0
1,1496756688,1727,2,-37,-88,-26,0,0,0
1,1496756688,1727,3,-35,-87,-26,0,0,0
1,1496756688,1727,4,-38,-87,-28,0,0,0
1,1496756688,1727,5,-36,-88,-27,0,0,0
1,1496756688,1727,6,-39,-88,-27,0,0,0
1,1496756688,1727,7,-37,-88,-27,0,0,0
1,1496756688,1727,8,-36,-88,-27,0,0,0
1,1496756688,1727,9,-36,-87,-26,0,0,0
1,1496756688,1727,10,-39,-88,-27,0,0,0
1,1496756688,1727,11,-38,-87,-28,0,0,0
1,1496756688,1727,12,-37,-90,-27,0,0,0
1,1496756688,1727,13,-39,-86,-27,0,0,0
1,1496756688,1727,14,-36,-87,-26,0,0,0
1,1496756688,1727,15,-37,-87,-27,-2,0,0
1,1496756688,1727,16,-36,-86,-27,0,0,0
1,1496756688,1727,17,-40,-85,-26,0,0,0
1,1496756688,1727,18,-37,-88,-27,0,0,0
1,1496756688,1727,19,-37,-87,-26,-2,0,0
1,1496756688,1727,20,-38,-88,-26,0,0,0
1,1496756688,1728,1,-37,-88,-26,-2,0,0
1,1496756688,1728,2,-39,-88,-27,0,0,0
1,1496756688,1728,3,-39,-89,-27,-2,0,0
1,1496756688,1728,4,-39,-88,-27,0,0,0
1,1496756688,1728,5,-39,-88,-28,-2,0,0
1,1496756688,1728,6,-38,-88,-27,0,0,0
1,1496756688,1728,7,-37,-86,-27,0,0,0
1,1496756688,1728,8,-37,-87,-27,0,0,0
1,1496756688,1728,9,-36,-87,-26,-2,0,0
1,1496756688,1728,10,-38,-88,-27,0,0,0
1,1496756688,1728,11,-37,-85,-26,-2,0,0
1,1496756688,1728,12,-35,-90,-25,0,0,0
1,1496756688,1728,13,-39,-87,-26,-2,0,0
1,1496756688,1728,14,-36,-88,-26,0,0,0
1,1496756688,1728,15,-37,-88,-27,0,0,0
1,1496756688,1728,16,-39,-88,-28,0,0,0
1,1496756688,1728,17,-39,-87,-27,0,0,0
1,1496756688,1728,18,-38,-85,-27,0,0,0
1,1496756688,1728,19,-39,-87,-27,0,0,0
1,1496756688,1728,20,-38,-88,-26,-2,0,0
1,1496756689,1729,1,-39,-85,-27,0,0,0
1,1496756689,1729,2,-35,-86,-26,0,0,0
1,1496756689,1729,3,-39,-89,-26,0,0,0
1,1496756689,1729,4,-38,-88,-27,0,0,0
1,1496756689,1729,5,-39,-88,-26,-2,0,0
1,1496756689,1729,6,-35,-90,-26,0,0,0
1,1496756689,1729,7,-38,-87,-27,-2,0,0
1,1496756689,1729,8,-38,-89,-28,0,0,0
1,1496756689,1729,9,-38,-88,-29,-2,0,0
1,1496756689,1729,10,-37,-87,-26,0,0,0
1,1496756689,1729,11,-37,-87,-26,0,0,0
1,1496756689,1729,12,-39,-86,-25,-2,0,0
1,1496756689,1729,13,-39,-89,-27,-2,0,0
1,1496756689,1729,14,-37,-87,-27,0,0,0
1,1496756689,1729,15,-38,-86,-26,0,0,0
1,1496756689,1729,16,-38,-88,-27,0,0,0
1,1496756689,1729,17,-39,-90,-28,0,0,0
1,1496756689,1729,18,-37,-89,-27,0,0,0
1,1496756689,1729,19,-38,-89,-28,0,0,0
1,1496756689,1729,20,-38,-87,-27,0,0,0
1,1496756690,1730,1,-37,-88,-26,0,0,0
1,1496756690,1730,2,-39,-86,-27,0,0,0
1,1496756690,1730,3,-40,-85,-27,-2,0,0
1,1496756690,1730,4,-37,-87,-26,0,0,0
1,1496756690,1730,5,-36,-87,-25,0,0,0
1,1496756690,1730,6,-38,-89,-27,-2,0,0
1,1496756690,1730,7,-36,-88,-27,0,0,0
1,1496756690,1730,8,-39,-89,-27,0,0,0
1,1496756690,1730,9,-39,-87,-28,0,0,0
1,1496756690,1730,10,-38,-86,-28,0,0,0
1,1496756690,1730,11,-38,-86,-27,-2,0,0
1,1496756690,1730,12,-38,-86,-27,-2,0,0
1,1496756690,1730,13,-36,-85,-28,-2,0,0
1,1496756690,1730,14,-38,-87,-25,0,0,0
1,1496756690,1730,15,-38,-86,-25,0,0,0
1,1496756690,1730,16,-38,-87,-27,0,0,0
1,1496756690,1730,17,-38,-89,-29,-2,0,0
1,1496756690,1730,18,-38,-87,-28,0,0,0
1,1496756690,1730,19,-37,-88,-28,0,0,0
1,1496756690,1730,20,-39,-87,-28,-2,0,0
1,1496756691,1731,1,-39,-87,-28,-2,0,0
1,1496756691,1731,2,-38,-86,-27,-2,0,0
1,1496756691,1731,3,-39,-87,-28,0,0,0
1,1496756691,1731,4,-39,-88,-27,-2,0,0
1,1496756691,1731,5,-37,-88,-27,-2,0,0
1,1496756691,1731,6,-40,-88,-27,0,0,0
1,1496756691,1731,7,-38,-88,-28,-2,0,0
1,1496756691,1731,8,-37,-88,-29,0,0,0
1,1496756691,1731,9,-36,-88,-29,0,0,0
1,1496756691,1731,10,-36,-85,-28,0,0,0
1,1496756691,1731,11,-39,-88,-26,0,0,0
1,1496756691,1731,12,-38,-85,-25,0,0,0
1,1496756691,1731,13,-37,-88,-25,0,0,0
1,1496756691,1731,14,-37,-89,-27,-2,0,0
1,1496756691,1731,15,-38,-89,-27,0,0,0
1,1496756691,1731,16,-40,-86,-29,-2,0,0
1,1496756691,1731,17,-36,-89,-29,-2,0,0
1,1496756691,1731,18,-39,-85,-27,0,0,0
1,1496756691,1731,19,-39,-86,-27,0,0,0
1,1496756691,1731,20,-37,-87,-27,-2,0,0
1,1496756692,1732,1,-39,-88,-28,0,0,0
1,1496756692,1732,2,-38,-88,-27,0,0,0
1,1496756692,1732,3,-38,-89,-26,-2,0,0
1,1496756692,1732,4,-38,-88,-29,0,0,0
1,1496756692,1732,5,-37,-88,-28,0,0,0
1,1496756692,1732,6,-38,-86,-27,-2,0,0
1,1496756692,1732,7,-36,-89,-27,0,0,0
1,1496756692,1732,8,-39,-88,-29,0,0,0
1,1496756692,1732,9,-37,-87,-26,0,0,0
1,1496756692,1732,10,-37,-88,-25,0,0,0
1,1496756692,1732,11,-38,-90,-26,0,0,0
1,1496756692,1732,12,-38,-88,-28,-2,0,0
1,1496756692,1732,13,-40,-89,-28,-2,0,0
1,1496756692,1732,14,-37,-86,-27,0,0,0
1,1496756692,1732,15,-38,-86,-27,-2,0,0
1,1496756692,1732,16,-38,-87,-27,0,0,0
1,1496756692,1732,17,-38,-86,-26,-2,0,0
1,1496756692,1732,18,-38,-89,-26,0,0,0
1,1496756692,1732,19,-40,-90,-27,0,0,0
1,1496756692,1732,20,-37,-87,-27,0,0,0
1,1496756693,1733,1,-38,-87,-28,0,0,0
1,1496756693,1733,2,-37,-88,-27,0,0,0
1,1496756693,1733,3,-37,-87,-28,0,0,0
1,1496756693,1733,4,-38,-88,-25,0,0,0
1,1496756693,1733,5,-37,-86,-25,-2,0,0
1,1496756693,1733,6,-38,-88,-27,0,0,0
1,1496756693,1733,7,-39,-89,-27,0,0,0
1,1496756693,1733,8,-36,-86,-26,0,0,0
1,1496756693,1733,9,-40,-88,-27,0,0,0
1,1496756693,1733,10,-38,-87,-27,0,0,0
1,1496756693,1733,11,-37,-87,-27,-2,0,0
1,1496756693,1733,12,-37,-87,-28,-2,0,0
1,1496756693,1733,13,-39,-87,-26,-2,0,0
1,1496756693,1733,14,-37,-90,-26,-2,0,0
1,1496756693,1733,15,-38,-89,-28,-2,0,0
1,1496756693,1733,16,-37,-88,-28,0,0,0
1,1496756693,1733,17,-41,-86,-28,0,0,0
1,1496756693,1733,18,-37,-88,-27,0,1,0
1,1496756693,1733,19,-38,-86,-26,0,0,0
1,1496756693,1733,20,-38,-86,-28,0,0,0
1,1496756694,1734,1,-37,-89,-26,-2,0,0
1,1496756694,1734,2,-40,-89,-27,0,0,0
1,1496756694,1734,3,-36,-87,-29,0,0,0
1,1496756694,1734,4,-36,-89,-27,0,0,0
1,1496756694,1734,5,-36,-87,-28,0,0,0
1,1496756694,1734,6,-39,-86,-29,0,0,0
1,1496756694,1734,7,-36,-88,-26,0,0,0
1,1496756694,1734,8,-38,-89,-27,0,0,0
1,1496756694,1734,9,-38,-87,-28,0,0,0
1,1496756694,1734,10,-37,-87,-27,0,0,0
1,1496756694,1734,11,-37,-88,-26,0,0,0
1,1496756694,1734,12,-37,-88,-26,0,0,0
1,1496756694,1734,13,-39,-86,-27,0,0,0
1,1496756694,1734,14,-39,-88,-26,0,0,0
1,1496756694,1734,15,-38,-87,-26,-2,0,0
1,1496756694,1734,16,-37,-88,-25,0,0,0
1,1496756694,1734,17,-40,-85,-28,0,0,0
1,1496756694,1734,18,-37,-88,-28,-2,0,0
1,1496756694,1734,19,-37,-88,-27,0,0,0
1,1496756694,1734,20,-37,-87,-27,0,0,0
1,1496756695,1735,1,-36,-86,-25,-2,0,0
1,1496756695,1735,2,-39,-89,-25,0,0,0
1,1496756695,1735,3,-39,-87,-29,0,0,0
1,1496756695,1735,4,-36,-88,-27,0,0,0
1,1496756695,1735,5,-39,-88,-29,0,0,0
1,1496756695,1735,6,-37,-86,-28,0,0,0
1,1496756695,1735,7,-34,-87,-30,0,0,0
1,1496756695,1735,8,-38,-89,-27,-2,0,0
1,1496756695,1735,9,-38,-89,-28,0,0,0
1,1496756695,1735,10,-37,-87,-27,0,0,0
1,1496756695,1735,11,-39,-87,-28,0,0,0
1,1496756695,1735,12,-38,-87,-28,-2,0,0
1,1496756695,1735,13,-37,-85,-29,0,0,0
1,1496756695,1735,14,-39,-87,-25,-2,0,0
1,1496756695,1735,15,-37,-88,-25,0,0,0
1,1496756695,1735,16,-39,-89,-27,0,0,0
1,1496756695,1735,17,-38,-86,-27,0,0,0
1,1496756695,1735,18,-37,-87,-27,0,0,0
1,1496756695,1735,19,-38,-87,-27,0,0,0
1,1496756695,1735,20,-36,-86,-29,0,0,0
1,1496756696,1736,1,-37,-88,-25,0,0,0
1,1496756696,1736,2,-38,-89,-27,-2,0,0
1,1496756696,1736,3,-38,-89,-27,0,0,0
1,1496756696,1736,4,-37,-87,-26,0,0,0
1,1496756696,1736,5,-38,-87,-27,0,0,0
1,1496756696,1736,6,-36,-88,-28,0,0,0
1,1496756696,1736,7,-39,-86,-28,0,0,0
1,1496756696,1736,8,-38,-87,-26,0,0,0
1,1496756696,1736,9,-38,-90,-26,-2,0,0
1,1496756696,1736,10,-36,-86,-29,0,0,0
1,1496756696,1736,11,-38,-87,-28,0,0,0
1,1496756696,1736,12,-39,-86,-28,0,0,0
1,1496756696,1736,13,-39,-89,-28,-2,0,0
1,1496756696,1736,14,-39,-87,-28,0,0,0
1,1496756696,1736,15,-38,-88,-27,0,0,0
1,1496756696,1736,16,-38,-89,-25,0,0,0
1,1496756696,1736,17,-39,-87,-25,0,0,0
1,1496756696,1736,18,-36,-88,-29,0,1,0
1,1496756696,1736,19,-39,-88,-28,-2,1,0
1,1496756696,1736,20,-38,-86,-27,-2,0,0
1,1496756697,1737,1,-41,-86,-26,-2,0,0
1,1496756697,1737,2,-36,-89,-25,0,0,0
1,1496756697,1737,3,-36,-86,-27,0,0,0
1,1496756697,1737,4,-39,-89,-25,0,0,0
1,1496756697,1737,5,-37,-88,-26,0,0,0
1,1496756697,1737,6,-38,-86,-29,0,0,0
1,1496756697,1737,7,-38,-86,-25,0,0,0
1,1496756697,1737,8,-39,-89,-26,-2,0,0
1,1496756697,1737,9,-40,-87,-27,0,0,0
1,1496756697,1737,10,-39,-87,-26,0,0,0
1,1496756697,1737,11,-40,-86,-29,-2,0,0
1,1496756697,1737,12,-38,-88,-26,0,0,0
1,1496756697,1737,13,-38,-86,-24,0,0,0
1,1496756697,1737,14,-37,-89,-28,-2,0,0
1,1496756697,1737,15,-39,-90,-26,-2,0,0
1,1496756697,1737,16,-40,-87,-28,-2,0,0
1,1496756697,1737,17,-40,-87,-25,-2,0,0
1,1496756697,1737,18,-39,-86,-27,0,0,0
1,1496756697,1737,19,-37,-87,-27,-2,0,0
1,1496756697,1737,20,-38,-87,-26,-2,0,0
1,1496756697,1737,1,-40,-87,-25,0,0,0
1,1496756697,1737,2,-37,-85,-27,0,0,0
1,1496756697,1737,3,-38,-86,-27,-2,0,0
1,1496756697,1737,4,-39,-89,-28,-2,0,0
1,1496756697,1737,5,-39,-87,-28,0,0,0
1,1496756697,1737,6,-37,-88,-26,0,0,0
1,1496756697,1737,7,-40,-89,-27,0,0,0
1,1496756697,1737,8,-39,-89,-26,-2,0,0
1,1496756697,1737,9,-40,-87,-27,0,0,0
1,1496756697,1737,10,-39,-87,-26,0,0,0
1,1496756697,1737,11,-40,-86,-29,-2,0,0
1,1496756697,1737,12,-38,-88,-26,0,0,0
1,1496756697,1737,13,-38,-86,-24,0,0,0
1,1496756697,1737,14,-37,-89,-28,-2,0,0
1,1496756697,1737,15,-39,-90,-26,-2,0,0
1,1496756697,1737,16,-40,-87,-28,-2,0,0
1,1496756697,1737,17,-40,-87,-25,-2,0,0
1,1496756697,1737,18,-39,-86,-27,0,0,0
1,1496756697,1737,19,-37,-87,-27,-2,0,0
1,1496756697,1737,20,-38,-87,-26,-2,0,0
1,1496756698,1738,1,-40,-87,-25,0,0,0
1,1496756698,1738,2,-37,-85,-27,0,0,0
1,1496756698,1738,3,-38,-86,-27,-2,0,0
1,1496756698,1738,4,-39,-89,-28,-2,0,0
1,1496756698,1738,5,-39,-87,-28,0,0,0
1,1496756698,1738,6,-37,-88,-26,0,0,0
1,1496756698,1738,7,-40,-89,-27,0,0,0
1,1496756698,1738,8,-39,-88,-26,0,0,0
1,1496756698,1738,9,-39,-86,-26,-2,0,0
1,1496756698,1738,10,-38,-87,-30,-2,0,0
1,1496756698,1738,11,-38,-88,-26,0,0,0
1,1496756698,1738,12,-40,-87,-26,0,0,0
1,1496756698,1738,13,-39,-88,-26,0,0,0
1,1496756698,1738,14,-39,-86,-25,0,0,0
1,1496756698,1738,15,-38,-87,-27,0,0,0
1,1496756698,1738,16,-38,-87,-26,0,0,0
1,1496756698,1738,17,-37,-87,-28,0,0,0
1,1496756698,1738,18,-39,-88,-27,-2,0,0
1,1496756698,1738,19,-37,-89,-27,0,0,0
1,1496756698,1738,20,-38,-88,-27,0,0,0
1,1496756699,1739,1,-37,-87,-29,0,0,0
1,1496756699,1739,2,-38,-86,-26,0,0,0
1,1496756699,1739,3,-37,-88,-27,0,0,0
1,1496756699,1739,4,-34,-86,-28,0,0,0
1,1496756699,1739,5,-36,-89,-28,-2,0,0
1,1496756699,1739,6,-37,-89,-26,0,0,0
1,1496756699,1739,7,-35,-88,-27,0,0,0
1,1496756699,1739,8,-38,-87,-27,0,0,0
1,1496756699,1739,9,-40,-86,-28,0,0,0
1,1496756699,1739,10,-38,-86,-26,0,0,0
1,1496756699,1739,11,-37,-90,-28,0,0,0
1,1496756699,1739,12,-38,-89,-28,0,0,0
1,1496756699,1739,13,-36,-87,-27,0,0,0
1,1496756699,1739,14,-38,-89,-28,0,0,0
1,1496756699,1739,15,-38,-89,-29,-2,0,0
1,1496756699,1739,16,-36,-87,-26,0,0,0
1,1496756699,1739,17,-39,-87,-26,0,0,0
1,1496756699,1739,18,-40,-87,-27,0,0,0
1,1496756699,1739,19,-40,-85,-26,-2,0,0
1,1496756699,1739,20,-39,-87,-26,0,0,0
1,1496756700,1740,1,-39,-88,-29,-2,0,0
1,1496756700,1740,2,-38,-85,-27,0,0,0
1,1496756700,1740,3,-37,-87,-27,-2,0,0
1,1496756700,1740,4,-39,-89,-27,0,0,0
1,1496756700,1740,5,-37,-87,-27,0,0,0
1,1496756700,1740,6,-39,-87,-26,0,0,0
1,1496756700,1740,7,-37,-87,-27,0,0,0
1,1496756700,1740,8,-37,-86,-28,0,0,0
1,1496756700,1740,9,-39,-89,-26,-2,0,0
1,1496756700,1740,10,-37,-88,-27,0,0,0
1,1496756700,1740,11,-38,-87,-27,0,0,0
1,1496756700,1740,12,-39,-87,-26,0,0,0
1,1496756700,1740,13,-37,-86,-28,0,0,0
1,1496756700,1740,14,-40,-86,-27,0,0,0
1,1496756700,1740,15,-38,-88,-25,-2,0,0
1,1496756700,1740,16,-39,-88,-27,0,0,0
1,1496756700,1740,17,-38,-87,-27,0,0,0
1,1496756700,1740,18,-39,-87,-27,-2,0,0
1,1496756700,1740,19,-38,-87,-27,-2,0,0
1,1496756700,1740,20,-38,-86,-28,0,0,0
1,1496756701,1741,1,-38,-87,-26,0,0,0
1,1496756701,1741,2,-37,-88,-28,0,0,0
1,1496756701,1741,3,-40,-86,-26,0,0,0
1,1496756701,1741,4,-39,-86,-27,-2,0,0
1,1496756701,1741,5,-37,-87,-27,0,0,0
1,1496756701,1741,6,-39,-88,-28,0,0,0
1,1496756701,1741,7,-38,-85,-25,-2,0,0
1,1496756701,1741,8,-36,-89,-26,0,0,0
1,1496756701,1741,9,-37,-90,-28,0,0,0
1,1496756701,1741,10,-37,-87,-26,-2,0,0
1,1496756701,1741,11,-38,-88,-28,0,0,0
1,1496756701,1741,12,-38,-86,-27,0,0,0
1,1496756701,1741,13,-38,-87,-27,-2,0,0
1,1496756701,1741,14,-38,-89,-27,0,0,0
1,1496756701,1741,15,-38,-87,-27,0,0,0
1,1496756701,1741,16,-36,-88,-27,-2,0,0
1,1496756701,1741,17,-39,-87,-27,0,0,0
1,1496756701,1741,18,-38,-87,-27,0,0,0
1,1496756701,1741,19,-36,-88,-27,0,0,0
1,1496756701,1741,20,-38,-88,-27,0,0,0
1,1496756702,1742,1,-38,-88,-28,0,0,0
1,1496756702,1742,2,-40,-87,-27,-2,0,0
1,1496756702,1742,3,-39,-87,-26,0,0,0
1,1496756702,1742,4,-38,-87,-28,-2,0,0
1,1496756702,1742,5,-37,-86,-27,0,0,0
1,1496756702,1742,6,-38,-89,-27,0,0,0
1,1496756702,1742,7,-37,-88,-26,-2,0,0
1,1496756702,1742,8,-38,-87,-28,0,0,0
1,1496756702,1742,9,-38,-88,-29,0,0,0
1,1496756702,1742,10,-38,-88,-27,0,0,0
1,1496756702,1742,11,-40,-85,-27,0,0,0
1,1496756702,1742,12,-37,-89,-28,0,0,0
1,1496756702,1742,13,-37,-89,-25,0,0,0
1,1496756702,1742,14,-37,-87,-27,0,0,0
1,1496756702,1742,15,-39,-87,-29,-2,0,0
1,1496756702,1742,16,-39,-88,-29,0,0,0
1,1496756702,1742,17,-36,-87,-28,0,0,0
1,1496756702,1742,18,-36,-90,-26,0,0,0
1,1496756702,1742,19,-39,-88,-27,0,0,0
1,1496756702,1742,20,-37,-87,-27,-2,0,0
1,1496756703,1743,1,-37,-88,-27,0,0,0
1,1496756703,1743,2,-37,-86,-28,0,0,0
1,1496756703,1743,3,-37,-87,-28,0,0,0
1,1496756703,1743,4,-38,-88,-28,-2,0,0
1,1496756703,1743,5,-38,-88,-28,0,0,0
1,1496756703,1743,6,-38,-87,-27,0,0,0
1,1496756703,1743,7,-39,-87,-27,0,0,0
1,1496756703,1743,8,-37,-88,-28,0,0,0
1,1496756703,1743,9,-36,-87,-28,0,0,0
1,1496756703,1743,10,-39,-88,-27,-2,0,0
1,1496756703,1743,11,-38,-87,-27,0,0,0
1,1496756703,1743,12,-36,-88,-28,0,0,0
1,1496756703,1743,13,-40,-85,-26,0,0,0
1,1496756703,1743,14,-36,-87,-27,0,0,0
1,1496756703,1743,15,-36,-86,-27,0,0,0
1,1496756703,1743,16,-38,-89,-27,0,0,0
1,1496756703,1743,17,-39,-89,-26,0,0,0
1,1496756703,1743,18,-39,-87,-27,0,0,0
1,1496756703,1743,19,-37,-87,-28,0,0,0
1,1496756703,1743,20,-39,-87,-28,0,0,0
1,1496756703,1744,1,-38,-86,-27,0,0,0
1,1496756703,1744,2,-37,-90,-26,0,0,0
1,1496756703,1744,3,-38,-88,-28,0,0,0
1,1496756703,1744,4,-38,-86,-28,0,0,0
1,1496756703,1744,5,-38,-87,-27,-2,0,0
1,1496756703,1744,6,-38,-87,-28,0,0,0
1,1496756703,1744,7,-38,-86,-26,0,0,0
1,1496756703,1744,8,-37,-88,-27,0,0,0
1,1496756703,1744,9,-37,-89,-26,0,0,0
1,1496756703,1744,10,-39,-88,-27,0,0,0
1,1496756703,1744,11,-37,-85,-26,-2,0,0
1,1496756703,1744,12,-38,-87,-28,0,0,0
1,1496756703,1744,13,-37,-86,-28,0,0,0
1,1496756703,1744,14,-38,-89,-28,-2,0,0
1,1496756703,1744,15,-37,-89,-26,0,0,0
1,1496756703,1744,16,-37,-88,-27,0,0,0
1,1496756703,1744,17,-40,-86,-26,-2,0,0
1,1496756703,1744,18,-37,-87,-28,0,0,0
1,1496756703,1744,19,-34,-88,-27,0,0,0
1,1496756703,1744,20,-38,-88,-27,-2,0,0
1,1496756704,1745,1,-38,-88,-27,0,0,0
1,1496756704,1745,2,-38,-86,-26,0,0,0
1,1496756704,1745,3,-38,-88,-28,-2,0,0
1,1496756704,1745,4,-37,-86,-28,0,0,0
1,1496756704,1745,5,-38,-87,-28,-2,0,0
1,1496756704,1745,6,-36,-90,-27,0,0,0
1,1496756704,1745,7,-39,-88,-26,0,0,0
1,1496756704,1745,8,-38,-88,-27,-2,0,0
1,1496756704,1745,9,-38,-88,-27,0,0,0
1,1496756704,1745,10,-39,-84,-26,0,0,0
1,1496756704,1745,11,-38,-88,-27,0,0,0
1,1496756704,1745,12,-38,-87,-27,0,0,0
1,1496756704,1745,13,-37,-86,-28,0,0,0
1,1496756704,1745,14,-40,-88,-26,0,0,0
1,1496756704,1745,15,-38,-88,-27,0,0,0
1,1496756704,1745,16,-39,-85,-26,-2,0,0
1,1496756704,1745,17,-37,-85,-26,0,0,0
1,1496756704,1745,18,-38,-89,-28,0,0,0
1,1496756704,1745,19,-39,-87,-27,0,0,0
1,1496756704,1745,20,-38,-86,-29,0,0,0
1,1496756705,1746,1,-36,-88,-28,0,0,0
1,1496756705,1746,2,-36,-88,-27,0,0,0
1,1496756705,1746,3,-35,-86,-29,-2,0,0
1,1496756705,1746,4,-39,-89,-27,-2,0,0
1,1496756705,1746,5,-38,-87,-27,0,0,0
1,1496756705,1746,6,-37,-86,-25,-2,0,0
1,1496756705,1746,7,-38,-87,-27,-2,0,0
1,1496756705,1746,8,-35,-87,-27,0,0,0
1,1496756705,1746,9,-38,-87,-27,0,0,0
1,1496756705,1746,10,-39,-88,-27,-2,0,0
